ts,id,Ax,Ay,Az,Gx,Gy,Gz
-0.755,IMU0,0.009580078125,-9.81,-0.18202148437500001,0.1400560224089636,-0.42016806722689076,-1.5406162464985995
-0.745,IMU0,-0.01916015625,-9.819580078125,-0.17244140625,0.1400560224089636,-0.42016806722689076,-1.4705882352941178
-0.735,IMU0,-0.028740234375000003,-9.81,-0.18202148437500001,0.1400560224089636,-0.42016806722689076,-1.5406162464985995
-0.725,IMU0,-0.01916015625,-9.81,-0.19160156250000002,0.1400560224089636,-0.4901960784313726,-1.4705882352941178
-0.715,IMU0,-0.01916015625,-9.800419921875001,-0.21076171875000002,0.1400560224089636,-0.4901960784313726,-1.4705882352941178
-0.705,IMU0,-0.009580078125,-9.81,-0.20118164062500002,0.1400560224089636,-0.4901960784313726,-1.5406162464985995
-0.695,IMU0,-0.047900390625000004,-9.819580078125,-0.20118164062500002,0.21008403361344538,-0.42016806722689076,-1.4705882352941178
-0.685,IMU0,-0.028740234375000003,-9.81,-0.20118164062500002,0.1400560224089636,-0.42016806722689076,-1.4705882352941178
-0.675,IMU0,0,-9.81,-0.19160156250000002,0.21008403361344538,-0.4901960784313726,-1.4705882352941178
-0.665,IMU0,0,-9.819580078125,-0.19160156250000002,0.1400560224089636,-0.4901960784313726,-1.4705882352941178
-0.655,IMU0,0.009580078125,-9.81,-0.19160156250000002,0.21008403361344538,-0.42016806722689076,-1.4705882352941178
-0.645,IMU0,-0.01916015625,-9.819580078125,-0.19160156250000002,0.0700280112044818,-0.4901960784313726,-1.5406162464985995
-0.635,IMU0,0.009580078125,-9.819580078125,-0.20118164062500002,0.21008403361344538,-0.42016806722689076,-1.4705882352941178
-0.625,IMU0,-0.028740234375000003,-9.819580078125,-0.19160156250000002,0.1400560224089636,-0.42016806722689076,-1.5406162464985995
-0.615,IMU0,-0.028740234375000003,-9.800419921875001,-0.17244140625,0.1400560224089636,-0.42016806722689076,-1.4705882352941178
-0.605,IMU0,-0.047900390625000004,-9.781259765625,-0.18202148437500001,0.21008403361344538,-0.42016806722689076,-1.5406162464985995
-0.595,IMU0,-0.01916015625,-9.800419921875001,-0.18202148437500001,0.21008403361344538,-0.42016806722689076,-1.5406162464985995
-0.585,IMU0,0,-9.829160156250001,-0.17244140625,0.21008403361344538,-0.4901960784313726,-1.4705882352941178
-0.575,IMU0,0.009580078125,-9.781259765625,-0.18202148437500001,0.21008403361344538,-0.4901960784313726,-1.4705882352941178
-0.565,IMU0,-0.01916015625,-9.800419921875001,-0.19160156250000002,0.1400560224089636,-0.4901960784313726,-1.5406162464985995
-0.555,IMU0,0.028740234375000003,-9.829160156250001,-0.21076171875000002,0.21008403361344538,-0.5602240896358543,-1.4705882352941178
-0.545,IMU0,-0.009580078125,-9.81,-0.17244140625,0.21008403361344538,-0.5602240896358543,-1.4705882352941178
-0.535,IMU0,-0.009580078125,-9.81,-0.17244140625,0.350140056022409,-0.4901960784313726,-1.4705882352941178
-0.525,IMU0,-0.067060546875,-9.800419921875001,-0.20118164062500002,0.1400560224089636,-0.5602240896358543,-1.4705882352941178
-0.515,IMU0,0,-9.819580078125,-0.19160156250000002,0.1400560224089636,-0.42016806722689076,-1.5406162464985995
-0.505,IMU0,-0.01916015625,-9.838740234375,-0.19160156250000002,0.1400560224089636,-0.42016806722689076,-1.5406162464985995
-0.495,IMU0,-0.028740234375000003,-9.81,-0.17244140625,0.21008403361344538,-0.42016806722689076,-1.5406162464985995
-0.485,IMU0,-0.01916015625,-9.781259765625,-0.21076171875000002,0.1400560224089636,-0.42016806722689076,-1.4705882352941178
-0.475,IMU0,0,-9.800419921875001,-0.19160156250000002,0.1400560224089636,-0.4901960784313726,-1.4705882352941178
-0.465,IMU0,-0.009580078125,-9.800419921875001,-0.20118164062500002,0.1400560224089636,-0.42016806722689076,-1.4705882352941178
-0.455,IMU0,-0.01916015625,-9.790839843750001,-0.21076171875000002,0.21008403361344538,-0.42016806722689076,-1.4705882352941178
-0.445,IMU0,-0.01916015625,-9.800419921875001,-0.19160156250000002,0.1400560224089636,-0.4901960784313726,-1.5406162464985995
-0.435,IMU0,-0.0383203125,-9.81,-0.162861328125,0.21008403361344538,-0.5602240896358543,-1.4705882352941178
-0.425,IMU0,0,-9.790839843750001,-0.19160156250000002,0.1400560224089636,-0.4901960784313726,-1.5406162464985995
-0.415,IMU0,-0.6227050781250001,-11.869716796875,0.39278320312500004,-1.400560224089636,-0.9803921568627452,-1.6106442577030813
-0.405,IMU0,0.20118164062500002,-12.72234375,-0.38320312500000003,0.1400560224089636,-7.142857142857143,-2.170868347338936
-0.395,IMU0,-0.258662109375,-8.9286328125,0.11496093750000001,-1.3305322128851542,-0.350140056022409,-1.5406162464985995
-0.385,IMU0,0.15328125,-7.846083984375,0.258662109375,-0.0700280112044818,-2.030812324929972,-1.400560224089636
-0.375,IMU0,0.22992187500000003,-9.398056640625,-0.5748046875,-0.2801120448179272,-1.4705882352941178,-1.5406162464985995
-0.365,IMU0,-0.852626953125,-9.627978515625001,0.13412109375,0.21008403361344538,0.42016806722689076,-1.4705882352941178
-0.355,IMU0,0.45026367187500005,-9.9249609375,-0.22034179687500002,0.0700280112044818,-0.4901960784313726,-1.4705882352941178
-0.345,IMU0,0.19160156250000002,-10.183623046875,-0.067060546875,0.350140056022409,0,-1.4705882352941178
-0.335,IMU0,-0.3448828125,-9.7716796875,-0.51732421875,0.0700280112044818,0.1400560224089636,-1.3305322128851542
-0.325,IMU0,-0.086220703125,-10.202783203125001,-0.009580078125,0.2801120448179272,0.8403361344537815,-1.5406162464985995
-0.315,IMU0,0.076640625,-9.857900390625,-0.09580078125000001,0,0,-1.5406162464985995
-0.305,IMU0,0.12454101562500001,-9.704619140625,-0.17244140625,0.21008403361344538,-0.4901960784313726,-1.5406162464985995
-0.295,IMU0,-0.258662109375,-9.8483203125,-0.10538085937500001,0.350140056022409,-1.1204481792717087,-1.5406162464985995
-0.285,IMU0,0.23950195312500003,-9.8483203125,-0.009580078125,0,-1.1904761904761905,-1.6106442577030813
-0.275,IMU0,-0.296982421875,-9.790839843750001,0.047900390625000004,0.350140056022409,-0.4901960784313726,-1.5406162464985995
-0.265,IMU0,0.40236328125000004,-10.356064453125,-0.9005273437500001,-0.350140056022409,-0.9803921568627452,-1.5406162464985995
-0.255,IMU0,-0.296982421875,-11.03625,-0.36404296875000003,0.21008403361344538,-0.2801120448179272,-1.4705882352941178
-0.245,IMU0,0.23950195312500003,-10.8446484375,0.22034179687500002,0.4901960784313726,-0.1400560224089636,-1.4705882352941178
-0.235,IMU0,-0.258662109375,-11.965517578125,-0.277822265625,-0.2801120448179272,1.3305322128851542,-1.2605042016806722
-0.225,IMU0,0.0383203125,-12.521162109375,-0.19160156250000002,0.42016806722689076,0.42016806722689076,-1.5406162464985995
-0.215,IMU0,0.17244140625,-12.798984375000002,-0.737666015625,0.2801120448179272,0.2801120448179272,-1.4705882352941178
-0.205,IMU0,-0.28740234375,-13.048066406250001,0.067060546875,0.4901960784313726,1.400560224089636,-1.4705882352941178
-0.195,IMU0,0.48858398437500006,-14.9066015625,-0.22034179687500002,0.6302521008403361,-0.1400560224089636,-1.680672268907563
-0.185,IMU0,0.067060546875,-21.526435546875,-0.3448828125,0.5602240896358543,0.1400560224089636,-1.5406162464985995
-0.175,IMU0,0,-38.454433593750004,1.101708984375,1.050420168067227,-0.21008403361344538,-1.6106442577030813
-0.165,IMU0,-0.28740234375,-49.806826171875,0.21076171875000002,0.9803921568627452,0.9803921568627452,-1.8907563025210086
-0.155,IMU0,1.120869140625,-58.448056640625005,3.3721875000000003,3.641456582633053,-0.700280112044818,-1.4705882352941178
-0.145,IMU0,-1.197509765625,-48.08241210937501,-14.149775390625,-4.271708683473389,-1.6106442577030813,0.9803921568627452
-0.135,IMU0,-0.8622070312500001,-35.024765625,-27.22658203125,-15.056022408963585,-8.123249299719888,-1.050420168067227
-0.125,IMU0,-0.01916015625,-24.419619140625002,2.7303222656250004,-8.96358543417367,-5.042016806722689,-2.5910364145658265
-0.115,IMU0,1.312470703125,-24.113056640625,-5.613925781250001,-14.775910364145659,-1.050420168067227,-1.400560224089636
-0.105,IMU0,0.43110351562500004,-73.757021484375,3.803291015625,-9.453781512605042,-6.022408963585434,-3.2913165266106446
-0.095,IMU0,-0.9388476562500001,-68.947822265625,6.313271484375001,5.9523809523809526,-6.512605042016807,-1.680672268907563
-0.085,IMU0,3.6883300781250004,-68.947822265625,6.313271484375001,5.9523809523809526,-6.512605042016807,-1.680672268907563
-0.075,IMU0,3.6883300781250004,-57.039785156250005,5.000800781250001,12.46498599439776,-10.714285714285715,-3.5714285714285716
-0.065,IMU0,0.833466796875,-37.314404296875004,3.3817675781250003,-6.0924369747899165,-0.7703081232492998,-1.8207282913165266
-0.055,IMU0,2.1459375,-53.217333984375,1.4561718750000001,0.42016806722689076,-6.862745098039216,-3.9215686274509807
-0.045,IMU0,1.312470703125,-74.26476562500001,9.168134765625,-5.322128851540617,13.795518207282914,-3.011204481792717
-0.035,IMU0,3.08478515625,-59.41564453125,-0.43110351562500004,-7.633053221288516,20.65826330532213,-1.1904761904761905
-0.025,IMU0,-2.222578125,-70.18365234375,1.657353515625,-1.1204481792717087,25.560224089635856,-0.6302521008403361
-0.015,IMU0,1.59029296875,-65.93967773437501,6.274951171875,-3.711484593837535,25.210084033613448,-1.3305322128851542
-0.005,IMU0,-0.814306640625,-69.158583984375,12.703183593750001,-3.711484593837535,20.938375350140056,-3.151260504201681
0.005,IMU0,-1.78189453125,-74.85873046875001,-6.658154296875001,-3.361344537815126,14.915966386554622,-0.8403361344537815
0.015,IMU0,-0.8622070312500001,-65.958837890625,3.496728515625,3.711484593837535,-3.5014005602240896,-3.2212885154061626
0.025,IMU0,2.08845703125,-77.08130859375001,10.202783203125001,0.700280112044818,-13.795518207282914,-2.9411764705882355
0.035,IMU0,-1.6094531250000002,-58.361835937500004,-3.8607714843750003,0.42016806722689076,-19.11764705882353,-2.5210084033613445
0.045,IMU0,-0.047900390625000004,-81.651005859375,0.7664062500000001,0,-22.969187675070028,-3.011204481792717
0.055,IMU0,0.296982421875,-62.701611328125004,-0.48858398437500006,3.151260504201681,-21.84873949579832,-3.2913165266106446
0.065,IMU0,1.2549902343750001,-78.604541015625,10.94044921875,1.680672268907563,-14.775910364145659,-2.5210084033613445
0.075,IMU0,3.9374121093750003,-61.25501953125001,0.775986328125,-2.6610644257703084,-6.0924369747899165,-2.5210084033613445
0.085,IMU0,3.899091796875,-58.34267578125,-9.8483203125,-4.761904761904762,1.680672268907563,-2.2408963585434174
0.095,IMU0,0.10538085937500001,-68.315537109375,0.9196875000000001,1.400560224089636,13.935574229691877,-1.8907563025210086
0.105,IMU0,1.39869140625,-60.000029296875006,15.46224609375,6.0924369747899165,14.495798319327731,-3.2212885154061626
0.115,IMU0,-2.6536816406250003,-76.85138671875,8.14306640625,-5.392156862745098,26.610644257703083,0
0.125,IMU0,3.1326855468750003,-62.816572265625005,-11.0745703125,-5.322128851540617,16.666666666666668,-0.8403361344537815
0.135,IMU0,3.5158886718750004,-70.06869140625001,-0.9963281250000001,2.5910364145658265,2.9411764705882355,0.0700280112044818
0.145,IMU0,1.0538085937500001,-66.66776367187501,6.255791015625,-2.5910364145658265,9.663865546218489,-0.6302521008403361
0.155,IMU0,-0.775986328125,-65.70017578125001,7.75986328125,-1.680672268907563,19.11764705882353,-0.350140056022409
0.165,IMU0,-4.512216796875,-72.856494140625,-4.905,0.21008403361344538,13.795518207282914,0.8403361344537815
0.175,IMU0,-0.67060546875,-49.701445312500006,5.010380859375,3.991596638655462,-5.182072829131653,0.0700280112044818
0.185,IMU0,4.071533203125,-76.50650390625,11.448193359375,4.061624649859944,-13.23529411764706,-2.3109243697478994
0.195,IMU0,-3.7649707031250004,-61.28375976562501,-5.767207031250001,1.3305322128851542,-16.38655462184874,-0.2801120448179272
0.205,IMU0,3.1518457031250002,-70.41357421875,-0.9771679687500001,2.73109243697479,-22.338935574229694,-1.1904761904761905
0.215,IMU0,-0.9771679687500001,-68.28679687500001,-2.5770410156250003,-2.3109243697478994,-7.843137254901961,-0.700280112044818
0.225,IMU0,2.232158203125,-54.184921875,8.459208984375001,-10.504201680672269,7.282913165266106,-3.641456582633053
0.235,IMU0,2.5866210937500003,-75.40479492187501,5.288203125000001,-1.1904761904761905,10.154061624649861,-1.8207282913165266
0.245,IMU0,-0.8622070312500001,-54.4531640625,2.1746777343750003,-1.1204481792717087,9.033613445378151,-1.5406162464985995
0.255,IMU0,4.80919921875,-65.681015625,11.409873046875001,0,12.114845938375352,-4.621848739495799
0.265,IMU0,-0.8047265625000001,-64.426025390625,-4.4068359375,0.6302521008403361,6.0924369747899165,-2.5210084033613445
0.275,IMU0,-2.998564453125,-58.927060546875005,8.459208984375001,-0.700280112044818,13.095238095238097,-2.73109243697479
0.285,IMU0,2.998564453125,-69.37892578125,12.789404296875,1.400560224089636,4.69187675070028,-3.011204481792717
0.295,IMU0,-3.899091796875,-55.756054687500004,-2.069296875,-3.2212885154061626,6.302521008403362,-0.8403361344537815
0.305,IMU0,-0.6514453125,-73.84324218750001,-8.114326171875,-2.73109243697479,-14.285714285714286,-1.7507002801120448
0.315,IMU0,1.2454101562500002,-55.439912109375,17.886005859375,-1.4705882352941178,-25.140056022408963,-3.2212885154061626
0.325,IMU0,2.845283203125,-66.04505859375,8.58375,-4.761904761904762,-26.050420168067227,-1.8207282913165266
0.335,IMU0,-9.225615234375,-59.195302734375005,-27.743906250000002,-7.773109243697479,-24.299719887955185,0.21008403361344538
0.345,IMU0,-1.140029296875,-60.459873046875,6.207890625,-6.162464985994398,-54.90196078431373,-2.5210084033613445
0.355,IMU0,4.7133984375,-73.575,8.83283203125,-1.8907563025210086,-31.022408963585434,-3.011204481792717
0.365,IMU0,3.726650390625,-58.745039062500005,4.914580078125001,2.5910364145658265,-14.775910364145659,-2.8711484593837535
0.375,IMU0,3.726650390625,-58.745039062500005,4.914580078125001,2.5910364145658265,-14.775910364145659,-2.8711484593837535
0.385,IMU0,2.8069628906250004,-70.3944140625,9.072333984375,9.313725490196079,-9.033613445378151,-5.9523809523809526
0.395,IMU0,5.489384765625,-69.3214453125,-19.667900390625,-0.8403361344537815,-1.400560224089636,-2.9411764705882355
0.405,IMU0,-8.305927734375,-60.632314453125005,4.569697265625,8.053221288515406,7.142857142857143,-3.081232492997199
0.415,IMU0,-1.43701171875,-73.66122070312501,17.866845703125,8.683473389355743,13.795518207282914,-3.991596638655462
0.425,IMU0,0.7472460937500001,-48.992519531250004,-10.7680078125,0.4901960784313726,30.3921568627451,-0.2801120448179272
0.435,IMU0,3.803291015625,-78.949423828125,-0.36404296875000003,0.5602240896358543,23.249299719887958,0.700280112044818
0.445,IMU0,2.442919921875,-52.546728515625006,25.473427734375,-0.0700280112044818,22.689075630252102,-0.700280112044818
0.455,IMU0,4.61759765625,-64.291904296875,-1.465751953125,-10.854341736694678,48.529411764705884,1.8907563025210086
0.465,IMU0,-3.3913476562500002,-69.5513671875,-24.400458984375003,-14.075630252100842,45.09803921568628,1.9607843137254903
0.475,IMU0,0.09580078125000001,-53.715498046875005,13.0672265625,0.350140056022409,15.406162464985995,1.3305322128851542
0.485,IMU0,0.5269042968750001,-73.143896484375,23.681953125000003,-1.8907563025210086,33.12324929971989,-1.1904761904761905
0.495,IMU0,-0.49816406250000006,-52.63294921875001,-1.43701171875,-6.302521008403362,27.521008403361346,2.5210084033613445
0.505,IMU0,-10.835068359375,-74.111484375,-39.594462890625,-2.2408963585434174,12.745098039215687,0.9803921568627452
0.515,IMU0,8.83283203125,-56.742802734375005,19.188896484375,7.142857142857143,-40.33613445378151,-2.801120448179272
0.525,IMU0,0.296982421875,-66.859365234375,32.390244140625,10.364145658263306,13.095238095238097,-2.9411764705882355
0.535,IMU0,6.811435546875001,-69.95373046875001,-20.070263671875,-6.722689075630252,23.03921568627451,-3.781512605042017
0.545,IMU0,-4.46431640625,-55.8326953125,3.822451171875,7.773109243697479,-3.711484593837535,-5.5322128851540615
0.555,IMU0,5.125341796875,-75.797578125,5.1732421875000005,4.971988795518207,-0.4901960784313726,-5.322128851540617
0.565,IMU0,-1.159189453125,-57.997792968750005,11.141630859375,-0.350140056022409,3.781512605042017,-4.761904761904762
0.575,IMU0,-6.64857421875,-69.99205078125,-20.625908203125,-3.431372549019608,6.512605042016807,-2.100840336134454
0.585,IMU0,0.24908203125000003,-54.60644531250001,10.59556640625,2.100840336134454,-13.375350140056023,-5.042016806722689
0.595,IMU0,0.9005273437500001,-71.4673828125,10.106982421875001,1.680672268907563,-9.033613445378151,-2.3109243697478994
0.605,IMU0,2.538720703125,-65.93967773437501,-1.619033203125,-5.182072829131653,-3.9215686274509807,-1.8207282913165266
0.615,IMU0,1.829794921875,-63.774580078125005,6.198310546875001,0.4901960784313726,-2.9411764705882355,-3.781512605042017
0.625,IMU0,4.282294921875001,-73.61332031250001,-0.9675878906250001,-0.8403361344537815,-4.201680672268908,-4.411764705882353
0.635,IMU0,-0.756826171875,-52.996992187500005,-2.28005859375,0,-5.042016806722689,-4.761904761904762
0.645,IMU0,-0.833466796875,-78.81530273437501,3.899091796875,-2.380952380952381,-3.711484593837535,-4.061624649859944
0.655,IMU0,-1.2549902343750001,-61.848984375,0.70892578125,-3.9215686274509807,-6.582633053221289,-4.061624649859944
0.665,IMU0,-2.5674609375000004,-71.68772460937501,6.351591796875001,-1.680672268907563,-6.022408963585434,-4.201680672268908
0.675,IMU0,1.66693359375,-70.91173828125001,3.16142578125,1.400560224089636,-4.971988795518207,-3.9215686274509807
0.685,IMU0,1.70525390625,-61.130478515625,-0.9771679687500001,0,-3.2913165266106446,-3.781512605042017
0.695,IMU0,3.4871484375,-74.4563671875,0.057480468750000006,1.5406162464985995,-3.711484593837535,-4.761904761904762
0.705,IMU0,0.6514453125,-52.987412109375,1.159189453125,7.843137254901961,-5.322128851540617,-4.761904761904762
0.715,IMU0,-0.258662109375,-73.278017578125,2.835703125,0.350140056022409,-3.5014005602240896,-4.971988795518207
0.725,IMU0,-1.8106347656250001,-50.496591796875,2.2704785156250002,0.5602240896358543,-6.862745098039216,-4.831932773109244
0.735,IMU0,-2.0213964843750003,-72.799013671875,5.527705078125001,-1.050420168067227,-2.9411764705882355,-3.711484593837535
0.745,IMU0,1.6094531250000002,-65.27865234375001,-0.689765625,1.050420168067227,-2.5910364145658265,-4.411764705882353
0.755,IMU0,0.354462890625,-66.48574218750001,6.236630859375,-2.3109243697478994,-3.151260504201681,-3.8515406162464987
0.765,IMU0,3.6691699218750005,-65.786396484375,-0.47900390625000006,0.9103641456582633,-3.8515406162464987,-4.901960784313726
0.775,IMU0,0.680185546875,-59.588085937500004,5.154082031250001,7.563025210084034,-4.901960784313726,-5.6722689075630255
0.785,IMU0,-1.427431640625,-76.573564453125,3.4584082031250003,0.0700280112044818,-5.882352941176471,-5.46218487394958
0.795,IMU0,0.9963281250000001,-55.171669921875,2.5674609375000004,-0.1400560224089636,-2.5910364145658265,-5.112044817927171
0.805,IMU0,-1.0921289062500001,-76.00833984375001,2.8740234375,1.4705882352941178,-6.372549019607844,-4.971988795518207
0.815,IMU0,0.19160156250000002,-53.61969726562501,-1.2549902343750001,1.3305322128851542,-5.5322128851540615,-5.2521008403361344
0.825,IMU0,2.212998046875,-69.78128906250001,3.50630859375,-0.700280112044818,-2.73109243697479,-4.621848739495799
0.835,IMU0,2.212998046875,-69.78128906250001,3.50630859375,-0.700280112044818,-2.73109243697479,-4.621848739495799
0.845,IMU0,-0.067060546875,-56.742802734375005,1.9160156250000002,-2.3109243697478994,-4.201680672268908,-5.322128851540617
0.855,IMU0,1.178349609375,-74.34140625,4.4547363281250005,-0.42016806722689076,-4.971988795518207,-5.9523809523809526
0.865,IMU0,-0.48858398437500006,-58.524697265625,1.580712890625,1.2605042016806722,-4.621848739495799,-5.112044817927171
0.875,IMU0,-0.354462890625,-70.44231445312501,4.435576171875001,-0.700280112044818,-1.3305322128851542,-5.602240896358544
0.885,IMU0,-0.5843847656250001,-71.21830078125001,0.45984375000000005,2.450980392156863,-7.212885154061625,-5.882352941176471
0.895,IMU0,1.302890625,-58.8216796875,1.197509765625,3.641456582633053,-3.8515406162464987,-5.112044817927171
0.905,IMU0,0.7855664062500001,-70.346513671875,1.044228515625,1.7507002801120448,-4.481792717086835,-5.322128851540617
0.915,IMU0,0.795146484375,-57.030205078125,5.767207031250001,3.711484593837535,-5.9523809523809526,-5.112044817927171
0.925,IMU0,1.140029296875,-76.094560546875,7.75986328125,5.46218487394958,-7.282913165266106,-6.652661064425771
0.935,IMU0,0.38320312500000003,-54.54896484375001,3.5350488281250003,0,-5.882352941176471,-5.882352941176471
0.945,IMU0,-1.101708984375,-74.877890625,3.8416113281250004,2.73109243697479,-3.081232492997199,-5.392156862745098
0.955,IMU0,0.59396484375,-52.757490234375005,3.65958984375,7.42296918767507,-7.773109243697479,-6.582633053221289
0.965,IMU0,0.22034179687500002,-76.937607421875,2.60578125,1.680672268907563,-3.431372549019608,-5.2521008403361344
0.975,IMU0,0.680185546875,-50.918115234375,0.22992187500000003,0.6302521008403361,-4.411764705882353,-6.372549019607844
0.985,IMU0,0.258662109375,-73.40255859375,8.420888671875,1.050420168067227,-3.5714285714285716,-5.6722689075630255
0.995,IMU0,0.028740234375000003,-55.181250000000006,1.178349609375,2.170868347338936,-3.711484593837535,-5.8123249299719895
1.005,IMU0,1.005908203125,-68.75622070312501,5.201982421875,0.2801120448179272,0.8403361344537815,-5.602240896358544
1.015,IMU0,0.5460644531250001,-59.41564453125,0.7280859375000001,1.1904761904761905,-4.271708683473389,-6.162464985994398
1.025,IMU0,-0.47900390625000006,-64.81880859375,1.005908203125,-2.100840336134454,-0.7703081232492998,-5.392156862745098
1.035,IMU0,0.009580078125,-59.90422851562501,0.047900390625000004,-1.050420168067227,-2.6610644257703084,-5.602240896358544
1.045,IMU0,0.15328125,-62.44294921875,5.010380859375,-0.350140056022409,-5.2521008403361344,-5.6722689075630255
1.055,IMU0,0.5748046875,-66.84978515625001,3.171005859375,1.8207282913165266,-4.971988795518207,-5.882352941176471
1.065,IMU0,0.8622070312500001,-62.69203125000001,1.6477734375000002,1.8207282913165266,-1.9607843137254903,-5.5322128851540615
1.075,IMU0,1.70525390625,-67.894013671875,1.120869140625,4.341736694677872,-2.801120448179272,-6.0924369747899165
1.085,IMU0,0.40236328125000004,-56.70448242187501,2.864443359375,5.182072829131653,-4.131652661064426,-6.372549019607844
1.095,IMU0,-0.8047265625000001,-60.469453125,1.0921289062500001,2.3109243697478994,-2.3109243697478994,-5.6722689075630255
1.105,IMU0,-0.3448828125,-56.57994140625,4.512216796875,3.151260504201681,-3.361344537815126,-5.8123249299719895
1.115,IMU0,0.9005273437500001,-72.75111328125,3.975732421875,1.050420168067227,0.700280112044818,-5.602240896358544
1.125,IMU0,0.910107421875,-52.201845703125,1.5328125000000001,2.73109243697479,-0.6302521008403361,-6.022408963585434
1.135,IMU0,1.3316308593750001,-68.056875,3.2572265625,-1.7507002801120448,-0.5602240896358543,-5.2521008403361344
1.145,IMU0,-0.32572265625,-52.01982421875,0.45984375000000005,-0.1400560224089636,-3.641456582633053,-5.882352941176471
1.155,IMU0,0.46942382812500005,-68.899921875,5.38400390625,1.1904761904761905,1.050420168067227,-6.0924369747899165
1.165,IMU0,-0.8238867187500001,-57.42298828125001,3.3817675781250003,2.5210084033613445,-1.1204481792717087,-5.46218487394958
1.175,IMU0,-0.11496093750000001,-53.466416015625,7.031777343750001,1.1204481792717087,-1.050420168067227,-6.23249299719888
1.185,IMU0,1.082548828125,-61.389140625,3.324287109375,-1.050420168067227,-1.680672268907563,-5.882352941176471
1.195,IMU0,0.44068359375000005,-57.53794921875,2.0309765625000002,-1.400560224089636,-3.8515406162464987,-6.23249299719888
1.205,IMU0,0.23950195312500003,-51.96234375,1.1879296875,0.4901960784313726,0.42016806722689076,-5.602240896358544
1.215,IMU0,0.59396484375,-51.10013671875,1.62861328125,2.030812324929972,0.4901960784313726,-5.6722689075630255
1.225,IMU0,-0.6227050781250001,-46.492119140625,1.3316308593750001,-0.2801120448179272,1.680672268907563,-5.392156862745098
1.235,IMU0,0.41194335937500004,-45.160488281250004,4.9337402343750005,3.431372549019608,-2.450980392156863,-6.022408963585434
1.245,IMU0,0.9867480468750001,-42.066123046875006,4.42599609375,2.8711484593837535,-4.341736694677872,-6.0924369747899165
1.255,IMU0,-0.9005273437500001,-39.776484375,3.3913476562500002,2.5910364145658265,0.0700280112044818,-5.882352941176471
1.265,IMU0,-0.6514453125,-36.777919921875004,1.4944921875000001,0.5602240896358543,-0.6302521008403361,-5.6722689075630255
1.275,IMU0,0.5077441406250001,-35.73369140625,1.4849121093750002,0,-0.4901960784313726,-5.6722689075630255
1.285,IMU0,0.63228515625,-35.73369140625,1.676513671875,0,-0.4901960784313726,-5.6722689075630255
1.295,IMU0,0.63228515625,-34.411640625000004,1.676513671875,1.4705882352941178,-1.3305322128851542,-5.6722689075630255
1.305,IMU0,0.028740234375000003,-34.105078125000006,0.9580078125000001,0.9803921568627452,-1.6106442577030813,-5.602240896358544
1.315,IMU0,-0.09580078125000001,-33.520693359375,0.28740234375,0.9803921568627452,-0.700280112044818,-5.46218487394958
1.325,IMU0,-0.41194335937500004,-32.9937890625,0.47900390625000006,1.400560224089636,-0.9803921568627452,-5.46218487394958
1.335,IMU0,-0.19160156250000002,-32.447724609375,0.28740234375,0.8403361344537815,-0.6302521008403361,-5.182072829131653
1.345,IMU0,-0.17244140625,-32.562685546875,-0.028740234375000003,0.6302521008403361,-0.42016806722689076,-5.112044817927171
1.355,IMU0,-0.15328125,-33.329091796875005,1.62861328125,0.8403361344537815,-0.42016806722689076,-5.182072829131653
1.365,IMU0,0.13412109375,-31.987880859375004,0.6035449218750001,0.42016806722689076,-0.6302521008403361,-5.042016806722689
1.375,IMU0,0.3448828125,-31.681318359375002,0.5460644531250001,0.4901960784313726,0.1400560224089636,-4.971988795518207
1.385,IMU0,-0.12454101562500001,-32.179482421875,0.3065625,0.21008403361344538,0.0700280112044818,-4.971988795518207
1.395,IMU0,-0.19160156250000002,-31.59509765625,0.8622070312500001,0.6302521008403361,-0.350140056022409,-4.971988795518207
1.405,IMU0,-0.335302734375,-30.464648437500003,0.316142578125,0.42016806722689076,-0.2801120448179272,-4.69187675070028
1.415,IMU0,-0.6035449218750001,-31.623837890625,0.8047265625000001,-0.9103641456582633,0.7703081232492998,-4.551820728291316
1.425,IMU0,-0.12454101562500001,-30.426328125,0.36404296875000003,0.700280112044818,0.4901960784313726,-4.621848739495799
1.435,IMU0,0.354462890625,-31.949560546875002,1.3699511718750002,0.0700280112044818,0.2801120448179272,-4.621848739495799
1.445,IMU0,0.162861328125,-28.979736328125004,0.13412109375,-0.2801120448179272,0.1400560224089636,-4.411764705882353
1.455,IMU0,-0.36404296875000003,-30.512548828125002,0.22034179687500002,-0.6302521008403361,0.7703081232492998,-4.481792717086835
1.465,IMU0,-0.028740234375000003,-30.196406250000003,1.2454101562500002,-0.9103641456582633,0.5602240896358543,-4.411764705882353
1.475,IMU0,-0.44068359375000005,-29.315039062500002,0.067060546875,-0.21008403361344538,0.21008403361344538,-4.201680672268908
1.485,IMU0,-0.5652246093750001,-28.998896484375003,0.5460644531250001,-0.1400560224089636,0.5602240896358543,-4.201680672268908
1.495,IMU0,-0.19160156250000002,-28.816875000000003,0.67060546875,0.1400560224089636,-0.1400560224089636,-3.991596638655462
1.505,IMU0,0.047900390625000004,-28.7785546875,1.3699511718750002,-0.1400560224089636,0.4901960784313726,-3.641456582633053
1.515,IMU0,-0.699345703125,-29.650341796875,0.258662109375,-1.050420168067227,0.9803921568627452,-3.8515406162464987
1.525,IMU0,0.01916015625,-28.136689453125,-0.09580078125000001,-0.700280112044818,0,-3.711484593837535
1.535,IMU0,-0.36404296875000003,-27.925927734375,0.5748046875,-1.2605042016806722,0.21008403361344538,-3.641456582633053
1.545,IMU0,-0.48858398437500006,-27.830126953125003,0.2682421875,-0.9803921568627452,0,-3.5714285714285716
1.555,IMU0,-0.49816406250000006,-27.878027343750002,0.48858398437500006,0.0700280112044818,0.21008403361344538,-3.2913165266106446
1.565,IMU0,-0.3065625,-28.37619140625,0.689765625,-1.1204481792717087,0.21008403361344538,-3.2212885154061626
1.575,IMU0,-0.55564453125,-26.26857421875,0.17244140625,-0.9803921568627452,0.1400560224089636,-3.081232492997199
1.585,IMU0,-0.15328125,-27.68642578125,0.37362304687500003,-1.5406162464985995,0.350140056022409,-2.8711484593837535
1.595,IMU0,-0.22034179687500002,-27.264902343750002,1.197509765625,-0.9803921568627452,-0.42016806722689076,-2.801120448179272
1.605,IMU0,-0.162861328125,-25.760830078125,0.335302734375,-0.5602240896358543,-0.9103641456582633,-2.5910364145658265
1.615,IMU0,-0.5748046875,-27.207421875,0.795146484375,-0.700280112044818,0,-2.450980392156863
1.625,IMU0,-0.613125,-27.159521484375002,0.41194335937500004,0.42016806722689076,-0.700280112044818,-2.5210084033613445
1.635,IMU0,-0.162861328125,-25.693769531250002,0.9388476562500001,-0.7703081232492998,-0.4901960784313726,-2.100840336134454
1.645,IMU0,-0.689765625,-27.466083984375,0.70892578125,-1.4705882352941178,-0.7703081232492998,-2.170868347338936
1.655,IMU0,-0.13412109375,-24.256757812500002,0.7472460937500001,-1.400560224089636,-1.400560224089636,-2.100840336134454
1.665,IMU0,-0.20118164062500002,-25.751250000000002,0.45026367187500005,-1.8207282913165266,-1.2605042016806722,-1.8207282913165266
1.675,IMU0,-0.12454101562500001,-25.511748046875002,0.44068359375000005,-1.9607843137254903,-0.1400560224089636,-1.7507002801120448
1.685,IMU0,-0.277822265625,-25.358466796875003,0.40236328125000004,-1.8907563025210086,-0.1400560224089636,-1.400560224089636
1.695,IMU0,-0.680185546875,-26.441015625000002,0.680185546875,-1.7507002801120448,-0.1400560224089636,-1.2605042016806722
1.705,IMU0,0.22034179687500002,-25.013583984375003,1.063388671875,-0.42016806722689076,-1.050420168067227,-1.1904761904761905
1.715,IMU0,-0.718505859375,-23.959775390625,1.2454101562500002,-1.400560224089636,-1.400560224089636,-1.050420168067227
1.725,IMU0,-0.21076171875000002,-24.295078125,0.24908203125000003,-1.7507002801120448,-0.8403361344537815,-0.9803921568627452
1.735,IMU0,-0.296982421875,-23.9501953125,0.22992187500000003,-1.9607843137254903,0.1400560224089636,-0.6302521008403361
1.745,IMU0,-0.296982421875,-23.9501953125,0.22992187500000003,-1.9607843137254903,0.1400560224089636,-0.6302521008403361
1.755,IMU0,-0.143701171875,-23.844814453125,0.42152343750000004,-2.5210084033613445,0.1400560224089636,-0.42016806722689076
1.765,IMU0,-0.22992187500000003,-24.180117187500002,0.948427734375,-3.081232492997199,0.21008403361344538,-0.350140056022409
1.775,IMU0,-0.028740234375000003,-23.7969140625,0.55564453125,-2.2408963585434174,-0.350140056022409,-0.350140056022409
1.785,IMU0,-0.354462890625,-24.074736328125002,0.10538085937500001,-3.2212885154061626,0.2801120448179272,-0.0700280112044818
1.795,IMU0,-0.5077441406250001,-23.375390625,0.47900390625000006,-3.081232492997199,0.1400560224089636,0.0700280112044818
1.805,IMU0,-0.3448828125,-23.193369140625002,0.41194335937500004,-2.73109243697479,0.350140056022409,0.2801120448179272
1.815,IMU0,-0.44068359375000005,-22.83890625,0.009580078125,-3.2212885154061626,0.5602240896358543,0.350140056022409
1.825,IMU0,-0.48858398437500006,-22.685625,0.9388476562500001,-3.5714285714285716,0.8403361344537815,0.4901960784313726
1.835,IMU0,-0.143701171875,-22.733525390625,0.49816406250000006,-3.2913165266106446,0.42016806722689076,0.6302521008403361
1.845,IMU0,0.086220703125,-22.35990234375,0.890947265625,-3.2913165266106446,-0.0700280112044818,0.6302521008403361
1.855,IMU0,-0.47900390625000006,-21.67013671875,0.59396484375,-3.011204481792717,-1.1904761904761905,0.42016806722689076
1.865,IMU0,-0.5652246093750001,-23.902294921875,0.9771679687500001,-5.392156862745098,0.42016806722689076,0.8403361344537815
1.875,IMU0,-0.17244140625,-21.986279296875,1.063388671875,-3.2212885154061626,-0.0700280112044818,0.9103641456582633
1.885,IMU0,-0.46942382812500005,-21.488115234375,-0.067060546875,-3.011204481792717,0.21008403361344538,1.1204481792717087
1.895,IMU0,-0.38320312500000003,-22.695205078125003,0.775986328125,-3.431372549019608,0.5602240896358543,1.3305322128851542
1.905,IMU0,-0.38320312500000003,-21.171972656250002,0.756826171875,-3.711484593837535,1.2605042016806722,1.5406162464985995
1.915,IMU0,0.20118164062500002,-20.922890625,0.41194335937500004,-3.431372549019608,0.5602240896358543,1.6106442577030813
1.925,IMU0,-0.49816406250000006,-21.440214843750002,0.15328125,-3.2212885154061626,0.21008403361344538,1.680672268907563
1.935,IMU0,-0.3065625,-22.158720703125002,0.6514453125,-3.5714285714285716,0.9103641456582633,1.680672268907563
1.945,IMU0,-0.40236328125000004,-20.7312890625,1.2070898437500002,-3.081232492997199,0.9803921568627452,2.030812324929972
1.955,IMU0,-0.22992187500000003,-20.319345703125002,0.258662109375,-3.9215686274509807,1.5406162464985995,1.9607843137254903
1.965,IMU0,-0.37362304687500003,-20.817509765625,0.67060546875,-3.641456582633053,1.9607843137254903,2.100840336134454
1.975,IMU0,-0.45984375000000005,-20.7312890625,0.9867480468750001,-3.641456582633053,1.8207282913165266,2.2408963585434174
1.985,IMU0,-0.057480468750000006,-19.629580078125002,0.536484375,-3.781512605042017,1.9607843137254903,2.170868347338936
1.995,IMU0,-0.3448828125,-20.0415234375,0.737666015625,-3.081232492997199,2.100840336134454,2.450980392156863
2.005,IMU0,-0.143701171875,-20.003203125000002,0.7855664062500001,-3.151260504201681,2.170868347338936,2.5210084033613445
2.015,IMU0,-0.13412109375,-20.491787109375,0.24908203125000003,-3.9215686274509807,1.8907563025210086,2.380952380952381
2.025,IMU0,-0.3448828125,-19.533779296875,0.8238867187500001,-3.2913165266106446,2.380952380952381,2.8711484593837535
2.035,IMU0,-0.51732421875,-19.878662109375,0.296982421875,-3.641456582633053,2.2408963585434174,2.801120448179272
2.045,IMU0,-0.22034179687500002,-19.77328125,0.9675878906250001,-3.2913165266106446,2.450980392156863,2.9411764705882355
2.055,IMU0,-0.5652246093750001,-19.246376953125,0.40236328125000004,-3.5014005602240896,2.5910364145658265,3.151260504201681
2.065,IMU0,-0.258662109375,-18.518291015625,0.9675878906250001,-4.061624649859944,2.8711484593837535,3.361344537815126
2.075,IMU0,0.10538085937500001,-19.06435546875,0.6418652343750001,-4.481792717086835,2.801120448179272,3.2913165266106446
2.085,IMU0,-0.19160156250000002,-18.709892578125,0.21076171875000002,-3.8515406162464987,2.9411764705882355,3.5014005602240896
2.095,IMU0,-0.15328125,-19.63916015625,0.9196875000000001,-4.061624649859944,3.5014005602240896,3.431372549019608
2.105,IMU0,-0.277822265625,-18.135087890625,1.302890625,-3.431372549019608,2.73109243697479,3.5014005602240896
2.115,IMU0,-0.28740234375,-18.403330078125002,0.871787109375,-3.5014005602240896,3.081232492997199,3.641456582633053
2.125,IMU0,-0.3448828125,-17.9722265625,0.6514453125,-3.781512605042017,3.9215686274509807,3.711484593837535
2.135,IMU0,0.047900390625000004,-18.345849609375,0.7280859375000001,-4.201680672268908,3.2913165266106446,3.781512605042017
2.145,IMU0,-0.795146484375,-18.633251953125,0.49816406250000006,-3.781512605042017,3.2212885154061626,3.711484593837535
2.155,IMU0,-0.24908203125000003,-17.426162109375,1.0154882812500001,-2.6610644257703084,3.781512605042017,3.991596638655462
2.165,IMU0,0.01916015625,-17.91474609375,0.41194335937500004,-3.711484593837535,3.991596638655462,3.781512605042017
2.175,IMU0,0.15328125,-17.263300781250003,0.9867480468750001,-3.361344537815126,3.8515406162464987,4.061624649859944
2.185,IMU0,-0.5748046875,-17.081279296875,0.45984375000000005,-3.2913165266106446,4.131652661064426,4.131652661064426
2.195,IMU0,-0.143701171875,-16.985478515625,0.40236328125000004,-3.641456582633053,4.551820728291316,4.131652661064426
2.205,IMU0,-0.143701171875,-16.985478515625,0.40236328125000004,-3.641456582633053,4.551820728291316,4.131652661064426
2.215,IMU0,0.047900390625000004,-18.020126953125,1.178349609375,-3.711484593837535,4.621848739495799,4.341736694677872
2.225,IMU0,-0.162861328125,-16.726816406250002,0.55564453125,-3.431372549019608,4.69187675070028,4.341736694677872
2.235,IMU0,0,-17.081279296875,0.6227050781250001,-3.011204481792717,4.971988795518207,4.341736694677872
2.245,IMU0,-0.086220703125,-16.813037109375003,0.929267578125,-3.2212885154061626,4.69187675070028,4.411764705882353
2.255,IMU0,-0.10538085937500001,-16.324453125,-0.086220703125,-3.011204481792717,5.322128851540617,4.69187675070028
2.265,IMU0,0.18202148437500001,-16.985478515625,0.699345703125,-2.9411764705882355,5.112044817927171,4.551820728291316
2.275,IMU0,-0.42152343750000004,-16.477734375,0.9771679687500001,-3.011204481792717,4.761904761904762,4.69187675070028
2.285,IMU0,-0.11496093750000001,-16.525634765625,1.2166699218750001,-2.73109243697479,5.392156862745098,4.69187675070028
2.295,IMU0,0.11496093750000001,-15.99873046875,0.536484375,-3.151260504201681,5.392156862745098,4.761904761904762
2.305,IMU0,-0.067060546875,-15.720908203125001,-0.057480468750000006,-3.2212885154061626,5.182072829131653,4.901960784313726
2.315,IMU0,0.258662109375,-15.42392578125,0.613125,-2.73109243697479,5.5322128851540615,4.69187675070028
2.325,IMU0,0.067060546875,-15.261064453125002,0.44068359375000005,-2.8711484593837535,5.742296918767507,4.971988795518207
2.335,IMU0,-0.19160156250000002,-16.065791015625003,1.082548828125,-2.5210084033613445,6.0924369747899165,4.831932773109244
2.345,IMU0,0.057480468750000006,-15.864609375,0.258662109375,-2.170868347338936,5.742296918767507,4.831932773109244
2.355,IMU0,0.076640625,-15.682587890625001,1.101708984375,-2.5210084033613445,6.372549019607844,4.901960784313726
2.365,IMU0,-0.028740234375000003,-15.107783203125,0.335302734375,-3.011204481792717,6.512605042016807,4.971988795518207
2.375,IMU0,0.296982421875,-14.9832421875,0.258662109375,-2.5210084033613445,6.652661064425771,4.971988795518207
2.385,IMU0,0.296982421875,-15.098203125000001,0.6227050781250001,-2.450980392156863,6.162464985994398,4.971988795518207
2.395,IMU0,-0.067060546875,-14.858701171875001,0.699345703125,-2.8711484593837535,6.302521008403362,4.831932773109244
2.405,IMU0,0.10538085937500001,-14.513818359375001,0.718505859375,-2.73109243697479,6.512605042016807,5.042016806722689
2.415,IMU0,0.20118164062500002,-14.944921875,0.296982421875,-2.73109243697479,6.442577030812325,4.901960784313726
2.425,IMU0,0.13412109375,-14.437177734375,0.51732421875,-1.8907563025210086,6.372549019607844,4.901960784313726
2.435,IMU0,0.09580078125000001,-13.9102734375,0.40236328125000004,-2.2408963585434174,6.302521008403362,4.901960784313726
2.445,IMU0,0.22034179687500002,-14.101875000000001,0.8622070312500001,-1.8907563025210086,6.372549019607844,4.831932773109244
2.455,IMU0,0.13412109375,-14.81080078125,0.6514453125,-2.5210084033613445,6.582633053221289,4.761904761904762
2.465,IMU0,-0.13412109375,-14.580878906250001,0.536484375,-3.151260504201681,6.022408963585434,4.831932773109244
2.475,IMU0,0.12454101562500001,-13.9869140625,0.47900390625000006,-2.5910364145658265,6.23249299719888,4.831932773109244
2.485,IMU0,0.067060546875,-13.6037109375,0.5077441406250001,-2.801120448179272,6.022408963585434,4.901960784313726
2.495,IMU0,0.45984375000000005,-13.325888671875001,1.025068359375,-2.100840336134454,6.162464985994398,4.901960784313726
2.505,IMU0,-0.028740234375000003,-13.996494140625002,0.42152343750000004,-2.5910364145658265,6.0924369747899165,4.621848739495799
2.515,IMU0,0.11496093750000001,-13.527070312500001,0.296982421875,-2.380952380952381,6.23249299719888,4.761904761904762
2.525,IMU0,0.38320312500000003,-13.54623046875,0.852626953125,-2.030812324929972,5.9523809523809526,4.69187675070028
2.535,IMU0,0.22034179687500002,-13.517490234375002,-0.10538085937500001,-2.170868347338936,6.302521008403362,4.621848739495799
2.545,IMU0,0.296982421875,-13.009746093750001,0.852626953125,-2.2408963585434174,6.022408963585434,4.761904761904762
2.555,IMU0,0.028740234375000003,-13.651611328125002,0.8813671875000001,-2.030812324929972,5.9523809523809526,4.621848739495799
2.565,IMU0,0.37362304687500003,-12.339140625,1.082548828125,-2.030812324929972,5.9523809523809526,4.621848739495799
2.575,IMU0,0.20118164062500002,-13.009746093750001,0.41194335937500004,-1.8907563025210086,5.8123249299719895,4.621848739495799
2.585,IMU0,0.40236328125000004,-12.578642578125,0.852626953125,-2.030812324929972,5.8123249299719895,4.481792717086835
2.595,IMU0,0.18202148437500001,-12.58822265625,-0.086220703125,-1.8907563025210086,5.602240896358544,4.481792717086835
2.605,IMU0,0.296982421875,-13.019326171875,0.354462890625,-1.5406162464985995,5.602240896358544,4.411764705882353
2.615,IMU0,0.5843847656250001,-12.636123046875001,0.890947265625,-1.8207282913165266,5.742296918767507,4.411764705882353
2.625,IMU0,0,-11.697275390625,0.910107421875,-1.2605042016806722,5.5322128851540615,4.481792717086835
2.635,IMU0,-0.15328125,-12.597802734375001,0.38320312500000003,-1.6106442577030813,5.322128851540617,4.341736694677872
2.645,IMU0,0.23950195312500003,-11.783496093750001,0.21076171875000002,-2.2408963585434174,5.182072829131653,4.201680672268908
2.655,IMU0,0.6227050781250001,-12.090058593750001,0.6418652343750001,-1.7507002801120448,5.042016806722689,4.061624649859944
2.665,IMU0,0.6227050781250001,-12.090058593750001,0.6418652343750001,-1.7507002801120448,5.042016806722689,4.061624649859944
2.675,IMU0,0.47900390625000006,-11.831396484375,-0.057480468750000006,-1.7507002801120448,5.2521008403361344,4.061624649859944
2.685,IMU0,0.833466796875,-11.563154296875,0.43110351562500004,-1.680672268907563,4.901960784313726,3.991596638655462
2.695,IMU0,0.689765625,-11.812236328125001,1.082548828125,-1.1204481792717087,4.761904761904762,4.131652661064426
2.705,IMU0,0.45026367187500005,-10.930869140625001,0.536484375,-1.5406162464985995,5.042016806722689,4.061624649859944
2.715,IMU0,0.42152343750000004,-11.955937500000001,1.082548828125,-1.1204481792717087,4.621848739495799,3.9215686274509807
2.725,IMU0,0.24908203125000003,-11.6876953125,1.2454101562500002,-0.8403361344537815,4.761904761904762,3.8515406162464987
2.735,IMU0,-0.01916015625,-11.218271484375,0.162861328125,-0.9803921568627452,4.831932773109244,3.8515406162464987
2.745,IMU0,0.24908203125000003,-10.28900390625,0.3448828125,-0.6302521008403361,4.761904761904762,3.5714285714285716
2.755,IMU0,1.178349609375,-11.620634765625,0.8430468750000001,-0.9803921568627452,5.112044817927171,3.361344537815126
2.765,IMU0,0.63228515625,-11.419453125,0.756826171875,-0.5602240896358543,4.061624649859944,3.151260504201681
2.775,IMU0,0.6227050781250001,-10.94044921875,0.9196875000000001,-0.9103641456582633,4.201680672268908,3.151260504201681
2.785,IMU0,0.852626953125,-10.413544921875001,0.613125,-0.8403361344537815,4.201680672268908,2.9411764705882355
2.795,IMU0,0.21076171875000002,-10.88296875,0.613125,-0.9103641456582633,4.271708683473389,3.011204481792717
2.805,IMU0,0.09580078125000001,-10.643466796875,0.49816406250000006,-0.6302521008403361,3.9215686274509807,2.801120448179272
2.815,IMU0,0.354462890625,-10.55724609375,0.5748046875,-0.2801120448179272,3.5014005602240896,2.5210084033613445
2.825,IMU0,0.5652246093750001,-10.518925781250001,0.354462890625,-0.350140056022409,3.2212885154061626,2.450980392156863
2.835,IMU0,0.718505859375,-10.624306640625,0.5748046875,-0.1400560224089636,3.2212885154061626,2.3109243697478994
2.845,IMU0,0.737666015625,-10.394384765625,0.680185546875,-0.2801120448179272,3.5014005602240896,2.100840336134454
2.855,IMU0,0.28740234375,-9.781259765625,0.890947265625,0.2801120448179272,3.2913165266106446,1.9607843137254903
2.865,IMU0,0.7280859375000001,-10.5380859375,1.0921289062500001,0.0700280112044818,3.2212885154061626,1.8907563025210086
2.875,IMU0,0.5652246093750001,-10.049501953125,0.37362304687500003,-0.2801120448179272,3.011204481792717,1.8207282913165266
2.885,IMU0,0.63228515625,-9.8483203125,0.8430468750000001,-0.0700280112044818,3.2913165266106446,1.7507002801120448
2.895,IMU0,0.38320312500000003,-9.656718750000001,0.44068359375000005,0.1400560224089636,2.9411764705882355,1.6106442577030813
2.905,IMU0,0.7472460937500001,-9.94412109375,0.277822265625,0.2801120448179272,2.73109243697479,1.2605042016806722
2.915,IMU0,0.8813671875000001,-9.513017578125,0.6227050781250001,0.350140056022409,2.450980392156863,1.1204481792717087
2.925,IMU0,0.42152343750000004,-9.627978515625001,0.890947265625,0.700280112044818,2.3109243697478994,0.9803921568627452
2.935,IMU0,0.7855664062500001,-9.283095703125001,0.67060546875,0.5602240896358543,2.380952380952381,0.9803921568627452
2.945,IMU0,1.235830078125,-8.9286328125,0.5269042968750001,0.6302521008403361,2.380952380952381,0.700280112044818
2.955,IMU0,0.613125,-9.043593750000001,1.005908203125,0.7703081232492998,1.9607843137254903,0.6302521008403361
2.965,IMU0,0.49816406250000006,-9.44595703125,0.20118164062500002,0.700280112044818,1.7507002801120448,0.4901960784313726
2.975,IMU0,0.8238867187500001,-9.838740234375,0.7664062500000001,1.050420168067227,1.680672268907563,0.2801120448179272
2.985,IMU0,0.45984375000000005,-9.10107421875,1.1304492187500002,1.050420168067227,1.5406162464985995,0.0700280112044818
2.995,IMU0,0.6610253906250001,-7.91314453125,0.21076171875000002,1.400560224089636,1.680672268907563,0
3.005,IMU0,0.5748046875,-9.59923828125,0.9771679687500001,1.4705882352941178,1.400560224089636,-0.350140056022409
3.015,IMU0,1.1687695312500002,-9.216035156250001,0.41194335937500004,1.5406162464985995,1.1204481792717087,-0.4901960784313726
3.025,IMU0,0.41194335937500004,-6.34201171875,0.258662109375,1.4705882352941178,1.4705882352941178,-0.6302521008403361
3.035,IMU0,0.775986328125,-8.919052734375,0.737666015625,1.4705882352941178,1.1904761904761905,-0.8403361344537815
3.045,IMU0,0.6035449218750001,-9.6183984375,0.5843847656250001,1.5406162464985995,1.1904761904761905,-0.7703081232492998
3.055,IMU0,0.871787109375,-8.976533203125001,0.63228515625,2.100840336134454,0.4901960784313726,-1.1904761904761905
3.065,IMU0,0.296982421875,-8.79451171875,0.296982421875,1.8907563025210086,0.21008403361344538,-1.1904761904761905
3.075,IMU0,0.5077441406250001,-8.344248046875,0.47900390625000006,2.5910364145658265,0.21008403361344538,-1.1904761904761905
3.085,IMU0,1.159189453125,-8.708291015625,1.120869140625,2.5910364145658265,-0.1400560224089636,-1.680672268907563
3.095,IMU0,0.296982421875,-8.574169921875,0.48858398437500006,2.100840336134454,0.0700280112044818,-1.5406162464985995
3.105,IMU0,0.48858398437500006,-8.200546875,0.3448828125,2.5210084033613445,-0.6302521008403361,-1.680672268907563
3.115,IMU0,0.756826171875,-8.200546875,0.3448828125,2.5210084033613445,-0.6302521008403361,-1.680672268907563
3.125,IMU0,0.756826171875,-8.430468750000001,0.17244140625,2.2408963585434174,-0.7703081232492998,-2.100840336134454
3.135,IMU0,0.929267578125,-8.4687890625,0.40236328125000004,2.380952380952381,-0.7703081232492998,-2.030812324929972
3.145,IMU0,0.795146484375,-8.344248046875,0.737666015625,2.8711484593837535,-0.9103641456582633,-2.100840336134454
3.155,IMU0,0.5460644531250001,-8.440048828125,0.296982421875,2.8711484593837535,-0.9803921568627452,-2.2408963585434174
3.165,IMU0,0.5652246093750001,-8.123906250000001,0.852626953125,2.73109243697479,-1.1904761904761905,-2.3109243697478994
3.175,IMU0,0.5269042968750001,-7.788603515625001,0.7280859375000001,2.801120448179272,-1.400560224089636,-2.450980392156863
3.185,IMU0,0.8622070312500001,-7.999365234375,0.44068359375000005,2.5210084033613445,-1.680672268907563,-2.5910364145658265
3.195,IMU0,0.8813671875000001,-8.478369140625,0.5460644531250001,2.73109243697479,-1.9607843137254903,-2.6610644257703084
3.205,IMU0,0.6227050781250001,-7.989785156250001,0.39278320312500004,2.801120448179272,-2.3109243697478994,-2.8711484593837535
3.215,IMU0,0.9005273437500001,-8.0089453125,0.13412109375,3.011204481792717,-2.450980392156863,-3.011204481792717
3.225,IMU0,0.63228515625,-7.692802734375,0.67060546875,3.011204481792717,-3.011204481792717,-3.081232492997199
3.235,IMU0,0.5843847656250001,-7.683222656250001,0.22992187500000003,3.151260504201681,-3.2212885154061626,-3.2212885154061626
3.245,IMU0,0.70892578125,-7.731123046875,0.55564453125,3.361344537815126,-3.641456582633053,-3.5014005602240896
3.255,IMU0,0.55564453125,-8.0089453125,0.8047265625000001,3.081232492997199,-3.991596638655462,-3.431372549019608
3.265,IMU0,0.5652246093750001,-7.64490234375,0.43110351562500004,3.081232492997199,-3.9215686274509807,-3.641456582633053
3.275,IMU0,0.9388476562500001,-7.5682617187500005,0.39278320312500004,3.431372549019608,-4.411764705882353,-3.8515406162464987
3.285,IMU0,0.67060546875,-7.280859375,0,3.5014005602240896,-4.761904761904762,-3.781512605042017
3.295,IMU0,0.814306640625,-7.5682617187500005,0.21076171875000002,3.431372549019608,-4.761904761904762,-4.061624649859944
3.305,IMU0,0.6610253906250001,-7.395820312500001,0.45984375000000005,3.2913165266106446,-5.5322128851540615,-4.201680672268908
3.315,IMU0,0.6035449218750001,-7.434140625,0.6227050781250001,3.2212885154061626,-5.6722689075630255,-4.341736694677872
3.325,IMU0,0.737666015625,-7.347919921875,0.5269042968750001,3.361344537815126,-5.9523809523809526,-4.481792717086835
3.335,IMU0,0.55564453125,-7.577841796875001,0.5748046875,3.151260504201681,-6.0924369747899165,-4.481792717086835
3.345,IMU0,0.47900390625000006,-6.99345703125,0.047900390625000004,3.5014005602240896,-6.302521008403362,-4.481792717086835
3.355,IMU0,0.890947265625,-6.773115234375,0.48858398437500006,3.431372549019608,-6.652661064425771,-4.69187675070028
3.365,IMU0,0.48858398437500006,-6.753955078125,0.2682421875,3.151260504201681,-7.002801120448179,-4.69187675070028
3.375,IMU0,1.140029296875,-7.539521484375,0.63228515625,3.5014005602240896,-6.652661064425771,-4.831932773109244
3.385,IMU0,0.22034179687500002,-4.57927734375,0.057480468750000006,3.151260504201681,-7.843137254901961,-5.112044817927171
3.395,IMU0,0.40236328125000004,-5.8917480468750005,0.2682421875,3.2913165266106446,-7.563025210084034,-5.182072829131653
3.405,IMU0,0.67060546875,-7.4724609375,0.10538085937500001,3.011204481792717,-7.983193277310924,-5.322128851540617
3.415,IMU0,1.2070898437500002,-7.098837890625,0.067060546875,3.151260504201681,-8.053221288515406,-5.8123249299719895
3.425,IMU0,0.45984375000000005,-4.42599609375,0.28740234375,3.431372549019608,-8.543417366946779,-5.5322128851540615
3.435,IMU0,-0.057480468750000006,-6.3228515625,0.43110351562500004,3.361344537815126,-8.543417366946779,-5.602240896358544
3.445,IMU0,0.37362304687500003,-6.49529296875,-0.028740234375000003,3.2212885154061626,-8.893557422969188,-5.9523809523809526
3.455,IMU0,0.7472460937500001,-6.504873046875001,0.22992187500000003,2.8711484593837535,-8.823529411764707,-6.022408963585434
3.465,IMU0,0.45026367187500005,-6.466552734375,0.36404296875000003,3.2913165266106446,-8.96358543417367,-6.022408963585434
3.475,IMU0,0.63228515625,-6.49529296875,-0.22034179687500002,2.8711484593837535,-8.96358543417367,-6.0924369747899165
3.485,IMU0,0.5460644531250001,-6.49529296875,0.316142578125,2.73109243697479,-9.453781512605042,-6.162464985994398
3.495,IMU0,0.296982421875,-6.313271484375001,0.047900390625000004,2.801120448179272,-9.173669467787116,-6.162464985994398
3.505,IMU0,0.258662109375,-6.38033203125,0.22992187500000003,2.801120448179272,-9.523809523809524,-6.162464985994398
3.515,IMU0,0.38320312500000003,-4.08111328125,0.13412109375,2.6610644257703084,-9.453781512605042,-6.162464985994398
3.525,IMU0,0.39278320312500004,-4.320615234375,0.41194335937500004,2.170868347338936,-9.38375350140056,-6.23249299719888
3.535,IMU0,0.536484375,-5.939648437500001,0.13412109375,2.030812324929972,-9.593837535014005,-6.442577030812325
3.545,IMU0,0.536484375,-6.68689453125,0.24908203125000003,2.450980392156863,-9.803921568627452,-6.582633053221289
3.555,IMU0,0.40236328125000004,-4.2152343750000005,-0.0383203125,2.100840336134454,-9.593837535014005,-6.512605042016807
3.565,IMU0,0.143701171875,-4.857099609375,-0.028740234375000003,2.100840336134454,-10.154061624649861,-6.512605042016807
3.575,IMU0,0.143701171875,-4.857099609375,-0.028740234375000003,2.100840336134454,-10.154061624649861,-6.512605042016807
3.585,IMU0,0.45026367187500005,-6.18873046875,0.3448828125,1.8907563025210086,-10.364145658263306,-6.582633053221289
3.595,IMU0,0.12454101562500001,-6.025869140625001,-0.057480468750000006,1.6106442577030813,-10.224089635854343,-6.582633053221289
3.605,IMU0,-0.076640625,-4.11943359375,0.296982421875,2.100840336134454,-10.784313725490197,-6.512605042016807
3.615,IMU0,0.22992187500000003,-5.125341796875,0.162861328125,1.680672268907563,-10.434173669467787,-6.722689075630252
3.625,IMU0,0.775986328125,-5.968388671875,-0.028740234375000003,1.1904761904761905,-10.714285714285715,-6.932773109243698
3.635,IMU0,0.11496093750000001,-3.7937109375,-0.12454101562500001,1.5406162464985995,-10.994397759103641,-6.722689075630252
3.645,IMU0,0.45984375000000005,-4.761298828125001,0.296982421875,1.1204481792717087,-10.784313725490197,-6.792717086834735
3.655,IMU0,0.37362304687500003,-4.761298828125001,0.23950195312500003,1.1904761904761905,-11.064425770308123,-7.072829131652662
3.665,IMU0,0.49816406250000006,-5.680986328125,0.047900390625000004,1.050420168067227,-10.994397759103641,-7.002801120448179
3.675,IMU0,0.46942382812500005,-5.326523437500001,-0.17244140625,0.9103641456582633,-11.27450980392157,-7.002801120448179
3.685,IMU0,-0.38320312500000003,-3.7937109375,0.32572265625,1.050420168067227,-11.27450980392157,-6.862745098039216
3.695,IMU0,0.067060546875,-5.11576171875,0.48858398437500006,0.8403361344537815,-11.344537815126051,-6.932773109243698
3.705,IMU0,0.258662109375,-4.1481738281250005,-0.24908203125000003,0.350140056022409,-11.344537815126051,-7.072829131652662
3.715,IMU0,0.0383203125,-4.368515625000001,0.18202148437500001,0.5602240896358543,-11.624649859943979,-7.072829131652662
3.725,IMU0,-0.076640625,-4.1769140625,0.296982421875,0.0700280112044818,-11.414565826330533,-7.002801120448179
3.735,IMU0,0.38320312500000003,-4.129013671875001,-0.32572265625,0,-11.69467787114846,-6.932773109243698
3.745,IMU0,0.21076171875000002,-4.799619140625,0.22034179687500002,0.350140056022409,-11.624649859943979,-7.072829131652662
3.755,IMU0,0.0383203125,-4.00447265625,0.17244140625,0.1400560224089636,-11.764705882352942,-7.002801120448179
3.765,IMU0,0.0383203125,-4.6367578125,0.2682421875,-0.0700280112044818,-11.904761904761905,-6.932773109243698
3.775,IMU0,0.13412109375,-4.608017578125001,0.277822265625,0,-11.554621848739496,-7.142857142857143
3.785,IMU0,0.162861328125,-3.5254687500000004,0.258662109375,0.0700280112044818,-11.764705882352942,-7.002801120448179
3.795,IMU0,-0.15328125,-4.129013671875001,-0.01916015625,-0.2801120448179272,-11.974789915966387,-6.862745098039216
3.805,IMU0,0.23950195312500003,-4.473896484375,-0.162861328125,-0.4901960784313726,-12.044817927170868,-7.072829131652662
3.815,IMU0,0.21076171875000002,-3.7841308593750003,0.335302734375,-0.350140056022409,-11.554621848739496,-7.072829131652662
3.825,IMU0,-0.076640625,-3.9086718750000005,0.09580078125000001,-0.7703081232492998,-11.904761904761905,-6.722689075630252
3.835,IMU0,-0.143701171875,-4.205654296875,-0.15328125,-1.050420168067227,-11.834733893557424,-7.002801120448179
3.845,IMU0,0.076640625,-4.6942382812500005,0.42152343750000004,-1.050420168067227,-12.184873949579833,-7.142857142857143
3.855,IMU0,0.2682421875,-4.8666796875000005,0.22034179687500002,-0.6302521008403361,-12.044817927170868,-7.002801120448179
3.865,IMU0,-0.009580078125,-4.73255859375,0.15328125,-0.9103641456582633,-11.974789915966387,-6.722689075630252
3.875,IMU0,0.01916015625,-2.8836035156250004,0.076640625,-0.700280112044818,-11.904761904761905,-6.582633053221289
3.885,IMU0,-0.39278320312500004,-3.6979101562500003,0.3448828125,-0.6302521008403361,-12.114845938375352,-6.582633053221289
3.895,IMU0,0,-3.6212695312500003,-0.13412109375,-0.9803921568627452,-11.974789915966387,-6.652661064425771
3.905,IMU0,0.23950195312500003,-4.435576171875001,0.19160156250000002,-0.9803921568627452,-11.974789915966387,-6.512605042016807
3.915,IMU0,0.009580078125,-3.2284863281250002,0.51732421875,-1.2605042016806722,-11.974789915966387,-6.302521008403362
3.925,IMU0,-0.162861328125,-3.2955468750000003,0.21076171875000002,-1.4705882352941178,-11.764705882352942,-6.372549019607844
3.935,IMU0,0.009580078125,-3.8607714843750003,-0.12454101562500001,-1.4705882352941178,-11.974789915966387,-6.442577030812325
3.945,IMU0,0.22992187500000003,-3.2763867187500004,0.32572265625,-1.3305322128851542,-11.974789915966387,-6.442577030812325
3.955,IMU0,0.01916015625,-3.0656250000000003,0.009580078125,-1.8207282913165266,-11.69467787114846,-6.442577030812325
3.965,IMU0,-0.13412109375,-3.2189062500000003,0.076640625,-1.8207282913165266,-12.044817927170868,-6.442577030812325
3.975,IMU0,-0.009580078125,-3.190166015625,0.354462890625,-1.8907563025210086,-12.184873949579833,-6.652661064425771
3.985,IMU0,0.067060546875,-3.8416113281250004,0.296982421875,-2.030812324929972,-11.764705882352942,-6.372549019607844
3.995,IMU0,0.12454101562500001,-4.588857421875001,0,-2.030812324929972,-12.254901960784315,-6.372549019607844
4.005,IMU0,-0.01916015625,-2.5770410156250003,0.162861328125,-1.6106442577030813,-12.044817927170868,-6.442577030812325
4.015,IMU0,-0.22034179687500002,-2.9794042968750003,0.22034179687500002,-1.7507002801120448,-12.184873949579833,-6.512605042016807
4.025,IMU0,-0.143701171875,-4.042792968750001,0.22992187500000003,-2.030812324929972,-11.974789915966387,-6.302521008403362
4.035,IMU0,-0.143701171875,-4.042792968750001,0.22992187500000003,-2.030812324929972,-11.974789915966387,-6.302521008403362
4.045,IMU0,-0.11496093750000001,-3.4488281250000004,0.067060546875,-2.100840336134454,-12.044817927170868,-6.372549019607844
4.055,IMU0,0.09580078125000001,-2.4237597656250003,0.18202148437500001,-2.450980392156863,-12.044817927170868,-6.372549019607844
4.065,IMU0,-0.18202148437500001,-3.2763867187500004,0.143701171875,-2.170868347338936,-11.764705882352942,-6.302521008403362
4.075,IMU0,-0.15328125,-2.864443359375,0.057480468750000006,-2.380952380952381,-11.904761904761905,-6.442577030812325
4.085,IMU0,-0.076640625,-3.3721875000000003,0.22034179687500002,-2.100840336134454,-11.834733893557424,-6.372549019607844
4.095,IMU0,0.12454101562500001,-2.8261230468750003,0.277822265625,-2.73109243697479,-11.484593837535014,-6.0924369747899165
4.105,IMU0,-0.39278320312500004,-3.1326855468750003,0.21076171875000002,-2.100840336134454,-11.414565826330533,-6.0924369747899165
4.115,IMU0,-0.009580078125,-2.85486328125,0.41194335937500004,-2.3109243697478994,-11.554621848739496,-6.0924369747899165
4.125,IMU0,-0.09580078125000001,-2.7303222656250004,0.23950195312500003,-2.450980392156863,-11.344537815126051,-6.0924369747899165
4.135,IMU0,-0.143701171875,-2.9027636718750003,0.009580078125,-2.2408963585434174,-11.414565826330533,-6.0924369747899165
4.145,IMU0,-0.19160156250000002,-2.7494824218750002,0.19160156250000002,-2.3109243697478994,-11.27450980392157,-6.0924369747899165
4.155,IMU0,-0.057480468750000006,-2.557880859375,-0.028740234375000003,-2.6610644257703084,-10.854341736694678,-6.022408963585434
4.165,IMU0,-0.0383203125,-2.6536816406250003,0.32572265625,-2.5210084033613445,-11.134453781512606,-5.9523809523809526
4.175,IMU0,-0.3448828125,-3.4392480468750004,0.2682421875,-2.450980392156863,-10.994397759103641,-6.0924369747899165
4.185,IMU0,-0.19160156250000002,-3.1039453125,0.2682421875,-2.3109243697478994,-10.784313725490197,-5.9523809523809526
4.195,IMU0,0.277822265625,-2.0213964843750003,0.0383203125,-2.380952380952381,-10.57422969187675,-5.9523809523809526
4.205,IMU0,-0.21076171875000002,-2.835703125,0.44068359375000005,-2.3109243697478994,-10.57422969187675,-5.6722689075630255
4.215,IMU0,-0.48858398437500006,-2.4141796875000003,0.20118164062500002,-2.450980392156863,-10.364145658263306,-5.6722689075630255
4.225,IMU0,-0.21076171875000002,-2.864443359375,0.12454101562500001,-2.450980392156863,-10.364145658263306,-5.8123249299719895
4.235,IMU0,-0.354462890625,-2.7399023437500003,0.316142578125,-2.5910364145658265,-10.434173669467787,-5.602240896358544
4.245,IMU0,-0.258662109375,-2.845283203125,0.22992187500000003,-2.3109243697478994,-10.014005602240896,-5.5322128851540615
4.255,IMU0,0.047900390625000004,-1.983076171875,0.22034179687500002,-2.73109243697479,-10.224089635854343,-5.6722689075630255
4.265,IMU0,-0.23950195312500003,-3.3338671875,0.5748046875,-2.380952380952381,-9.873949579831933,-5.46218487394958
4.275,IMU0,-0.40236328125000004,-2.059716796875,0.258662109375,-2.3109243697478994,-9.453781512605042,-5.392156862745098
4.285,IMU0,-0.28740234375,-2.60578125,0.24908203125000003,-2.5210084033613445,-9.803921568627452,-5.392156862745098
4.295,IMU0,-0.047900390625000004,-2.3375390625000003,0.3448828125,-2.5210084033613445,-9.73389355742297,-5.322128851540617
4.305,IMU0,-0.296982421875,-2.7494824218750002,0.0383203125,-2.5910364145658265,-9.523809523809524,-5.112044817927171
4.315,IMU0,-0.48858398437500006,-2.232158203125,0.38320312500000003,-2.450980392156863,-9.593837535014005,-5.112044817927171
4.325,IMU0,-0.37362304687500003,-2.0980371093750003,0.37362304687500003,-2.3109243697478994,-9.313725490196079,-4.971988795518207
4.335,IMU0,-0.067060546875,-2.404599609375,0.3448828125,-2.3109243697478994,-9.243697478991598,-4.971988795518207
4.345,IMU0,-0.47900390625000006,-2.3279589843750004,0.10538085937500001,-2.380952380952381,-8.823529411764707,-4.761904761904762
4.355,IMU0,-0.32572265625,-2.519560546875,0.45026367187500005,-2.6610644257703084,-8.96358543417367,-4.761904761904762
4.365,IMU0,-0.2682421875,-2.557880859375,0.3065625,-2.5910364145658265,-8.61344537815126,-4.761904761904762
4.375,IMU0,-0.316142578125,-2.12677734375,0.09580078125000001,-2.5910364145658265,-8.263305322128852,-4.551820728291316
4.385,IMU0,-0.316142578125,-2.442919921875,0.21076171875000002,-2.5210084033613445,-8.333333333333334,-4.341736694677872
4.395,IMU0,-0.277822265625,-2.01181640625,0.42152343750000004,-2.801120448179272,-7.983193277310924,-4.411764705882353
4.405,IMU0,-0.38320312500000003,-2.08845703125,0.19160156250000002,-2.6610644257703084,-7.843137254901961,-4.271708683473389
4.415,IMU0,-0.42152343750000004,-2.2608984375000003,0.36404296875000003,-2.5910364145658265,-7.913165266106443,-3.991596638655462
4.425,IMU0,-0.316142578125,-2.136357421875,0.46942382812500005,-2.73109243697479,-7.42296918767507,-3.991596638655462
4.435,IMU0,-0.45984375000000005,-2.040556640625,0.24908203125000003,-2.73109243697479,-7.352941176470589,-3.8515406162464987
4.445,IMU0,-0.01916015625,-1.9351757812500001,0.3448828125,-2.8711484593837535,-7.282913165266106,-3.711484593837535
4.455,IMU0,-0.47900390625000006,-2.1938378906250002,0,-3.2212885154061626,-7.072829131652662,-3.5714285714285716
4.465,IMU0,-0.5843847656250001,-2.0213964843750003,0.39278320312500004,-2.801120448179272,-6.792717086834735,-3.431372549019608
4.475,IMU0,-0.36404296875000003,-1.9926562500000002,0.47900390625000006,-2.801120448179272,-6.652661064425771,-3.431372549019608
4.485,IMU0,-0.143701171875,-1.9926562500000002,0.10538085937500001,-2.801120448179272,-6.652661064425771,-3.431372549019608
4.495,IMU0,-0.143701171875,-2.1459375,0.10538085937500001,-3.011204481792717,-6.512605042016807,-3.361344537815126
4.505,IMU0,-0.41194335937500004,-2.3375390625000003,0.5269042968750001,-3.011204481792717,-6.23249299719888,-3.2212885154061626
4.515,IMU0,-0.32572265625,-1.7627343750000002,0.41194335937500004,-3.011204481792717,-6.0924369747899165,-3.081232492997199
4.525,IMU0,-0.28740234375,-1.983076171875,0.28740234375,-3.2913165266106446,-5.6722689075630255,-2.9411764705882355
4.535,IMU0,-0.46942382812500005,-2.01181640625,0.20118164062500002,-2.73109243697479,-5.392156862745098,-2.73109243697479
4.545,IMU0,-0.40236328125000004,-1.6860937500000002,0.43110351562500004,-3.011204481792717,-5.182072829131653,-2.801120448179272
4.555,IMU0,-0.42152343750000004,-1.9543359375000002,0.6227050781250001,-3.011204481792717,-5.042016806722689,-2.5910364145658265
4.565,IMU0,-0.3065625,-1.74357421875,0.42152343750000004,-3.151260504201681,-4.69187675070028,-2.450980392156863
4.575,IMU0,-0.162861328125,-1.868115234375,0.335302734375,-3.081232492997199,-4.481792717086835,-2.380952380952381
4.585,IMU0,-0.39278320312500004,-1.62861328125,0.41194335937500004,-2.9411764705882355,-4.271708683473389,-2.3109243697478994
4.595,IMU0,-0.335302734375,-1.676513671875,0.28740234375,-3.2913165266106446,-3.9215686274509807,-2.3109243697478994
4.605,IMU0,-0.22992187500000003,-1.55197265625,0.23950195312500003,-3.011204481792717,-3.781512605042017,-2.100840336134454
4.615,IMU0,-0.5077441406250001,-2.002236328125,0.49816406250000006,-3.011204481792717,-3.431372549019608,-1.9607843137254903
4.625,IMU0,-0.40236328125000004,-1.4082714843750002,0.42152343750000004,-3.2212885154061626,-3.2913165266106446,-1.8207282913165266
4.635,IMU0,-0.39278320312500004,-1.4944921875000001,0.40236328125000004,-3.011204481792717,-3.011204481792717,-1.7507002801120448
4.645,IMU0,-0.335302734375,-1.8393750000000002,0.43110351562500004,-2.8711484593837535,-2.450980392156863,-1.6106442577030813
4.655,IMU0,-0.21076171875000002,-1.55197265625,0.5652246093750001,-3.011204481792717,-2.2408963585434174,-1.5406162464985995
4.665,IMU0,-0.277822265625,-1.9351757812500001,0.40236328125000004,-2.801120448179272,-1.9607843137254903,-1.400560224089636
4.675,IMU0,-0.41194335937500004,-1.542392578125,0.296982421875,-2.73109243697479,-1.8207282913165266,-1.2605042016806722
4.685,IMU0,-0.38320312500000003,-1.4178515625,0.5077441406250001,-2.6610644257703084,-1.4705882352941178,-1.2605042016806722
4.695,IMU0,-0.162861328125,-1.66693359375,0.40236328125000004,-2.73109243697479,-1.2605042016806722,-1.2605042016806722
4.705,IMU0,-0.335302734375,-2.212998046875,0.5748046875,-2.73109243697479,-0.8403361344537815,-1.050420168067227
4.715,IMU0,-0.258662109375,-1.197509765625,0.36404296875000003,-2.5210084033613445,-0.42016806722689076,-0.8403361344537815
4.725,IMU0,-0.32572265625,-1.4944921875000001,0.47900390625000006,-2.6610644257703084,-0.350140056022409,-0.9103641456582633
4.735,IMU0,-0.41194335937500004,-1.9734960937500001,0.3065625,-2.73109243697479,-0.0700280112044818,-0.9103641456582633
4.745,IMU0,-0.22034179687500002,-1.0154882812500001,0.48858398437500006,-2.450980392156863,0.2801120448179272,-0.7703081232492998
4.755,IMU0,-0.277822265625,-1.676513671875,0.756826171875,-2.450980392156863,0.6302521008403361,-0.6302521008403361
4.765,IMU0,-0.17244140625,-1.07296875,0.20118164062500002,-2.5910364145658265,1.050420168067227,-0.42016806722689076
4.775,IMU0,-0.2682421875,-1.4465917968750002,0.46942382812500005,-2.5910364145658265,0.9103641456582633,-0.42016806722689076
4.785,IMU0,-0.43110351562500004,-1.5998730468750002,0.42152343750000004,-2.5910364145658265,1.6106442577030813,-0.1400560224089636
4.795,IMU0,-0.59396484375,-0.9196875000000001,0.28740234375,-2.5210084033613445,1.5406162464985995,-0.0700280112044818
4.805,IMU0,-0.143701171875,-1.8393750000000002,0.5460644531250001,-2.450980392156863,1.7507002801120448,-0.1400560224089636
4.815,IMU0,-0.13412109375,-1.5328125000000001,0.48858398437500006,-2.5910364145658265,2.2408963585434174,0
4.825,IMU0,-0.057480468750000006,-0.910107421875,0.316142578125,-2.3109243697478994,2.2408963585434174,-0.0700280112044818
4.835,IMU0,-0.24908203125000003,-1.1112890625,0.5843847656250001,-2.2408963585434174,2.380952380952381,0.0700280112044818
4.845,IMU0,-0.5748046875,-1.101708984375,0.39278320312500004,-2.380952380952381,2.801120448179272,0.21008403361344538
4.855,IMU0,-0.17244140625,-1.159189453125,0.5077441406250001,-2.6610644257703084,2.73109243697479,0.1400560224089636
4.865,IMU0,-0.12454101562500001,-1.7244140625000002,0.42152343750000004,-2.450980392156863,3.011204481792717,0.2801120448179272
4.875,IMU0,-0.19160156250000002,-1.6477734375000002,0.5269042968750001,-2.380952380952381,3.151260504201681,0.350140056022409
4.885,IMU0,-0.28740234375,-0.890947265625,0.46942382812500005,-2.450980392156863,3.2212885154061626,0.350140056022409
4.895,IMU0,-0.258662109375,-1.5328125000000001,0.5843847656250001,-2.5210084033613445,3.151260504201681,0.4901960784313726
4.905,IMU0,-0.10538085937500001,-1.7723144531250001,0.536484375,-2.5210084033613445,3.431372549019608,0.5602240896358543
4.915,IMU0,-0.21076171875000002,-0.756826171875,0.45984375000000005,-2.3109243697478994,3.431372549019608,0.6302521008403361
4.925,IMU0,-0.057480468750000006,-1.43701171875,0.7280859375000001,-2.170868347338936,3.641456582633053,0.6302521008403361
4.935,IMU0,-0.51732421875,-1.504072265625,0.38320312500000003,-2.2408963585434174,3.9215686274509807,0.8403361344537815
4.945,IMU0,-0.51732421875,-1.504072265625,0.38320312500000003,-2.2408963585434174,3.9215686274509807,0.8403361344537815
4.955,IMU0,-0.296982421875,-0.6227050781250001,0.41194335937500004,-2.3109243697478994,3.8515406162464987,0.9103641456582633
4.965,IMU0,0.13412109375,-1.37953125,0.40236328125000004,-2.100840336134454,4.131652661064426,0.7703081232492998
4.975,IMU0,-0.2682421875,-1.7339941406250001,0.43110351562500004,-2.100840336134454,4.481792717086835,1.1904761904761905
4.985,IMU0,-0.2682421875,-0.5077441406250001,0.613125,-1.680672268907563,4.901960784313726,1.2605042016806722
4.995,IMU0,-0.143701171875,-1.274150390625,0.7472460937500001,-1.7507002801120448,4.69187675070028,1.1204481792717087
5.005,IMU0,-0.296982421875,-1.5711328125000001,0.2682421875,-2.3109243697478994,4.971988795518207,1.3305322128851542
5.015,IMU0,-0.13412109375,-0.5269042968750001,0.37362304687500003,-1.6106442577030813,5.2521008403361344,1.4705882352941178
5.025,IMU0,0.162861328125,-1.2454101562500002,0.5269042968750001,-1.6106442577030813,5.46218487394958,1.3305322128851542
5.035,IMU0,-0.10538085937500001,-1.5328125000000001,0.32572265625,-2.100840336134454,5.6722689075630255,1.5406162464985995
5.045,IMU0,-0.55564453125,-0.5269042968750001,0.46942382812500005,-1.5406162464985995,5.882352941176471,1.8207282913165266
5.055,IMU0,-0.11496093750000001,-1.1304492187500002,0.680185546875,-1.400560224089636,6.022408963585434,1.8907563025210086
5.065,IMU0,0.076640625,-1.580712890625,0.32572265625,-1.680672268907563,6.23249299719888,1.8907563025210086
5.075,IMU0,-0.12454101562500001,-0.46942382812500005,0.51732421875,-1.1904761904761905,6.302521008403362,1.7507002801120448
5.085,IMU0,-0.076640625,-0.929267578125,0.833466796875,-1.1204481792717087,6.372549019607844,1.8907563025210086
5.095,IMU0,-0.36404296875000003,-1.47533203125,0.5652246093750001,-1.5406162464985995,6.652661064425771,2.170868347338936
5.105,IMU0,0.076640625,-0.680185546875,0.277822265625,-1.3305322128851542,6.722689075630252,1.8207282913165266
5.115,IMU0,0.11496093750000001,-0.7472460937500001,0.42152343750000004,-1.1904761904761905,6.722689075630252,2.030812324929972
5.125,IMU0,-0.047900390625000004,-1.36037109375,0.5077441406250001,-1.400560224089636,6.582633053221289,2.030812324929972
5.135,IMU0,0.12454101562500001,-1.36037109375,0.41194335937500004,-1.3305322128851542,6.722689075630252,1.8907563025210086
5.145,IMU0,-0.335302734375,-0.699345703125,0.833466796875,-0.8403361344537815,6.722689075630252,2.170868347338936
5.155,IMU0,0.057480468750000006,-0.756826171875,0.32572265625,-1.2605042016806722,7.002801120448179,2.170868347338936
5.165,IMU0,0.067060546875,-1.1687695312500002,0.5748046875,-1.2605042016806722,6.722689075630252,2.100840336134454
5.175,IMU0,0.0383203125,-1.3412109375,0.45984375000000005,-1.1204481792717087,7.212885154061625,2.170868347338936
5.185,IMU0,-0.086220703125,-1.2070898437500002,0.6035449218750001,-0.9803921568627452,7.142857142857143,2.2408963585434174
5.195,IMU0,0.067060546875,-1.044228515625,0.51732421875,-0.8403361344537815,7.212885154061625,2.100840336134454
5.205,IMU0,-0.076640625,-0.9963281250000001,0.45026367187500005,-0.8403361344537815,7.282913165266106,2.2408963585434174
5.215,IMU0,0.23950195312500003,-0.9388476562500001,0.44068359375000005,-0.700280112044818,7.352941176470589,2.170868347338936
5.225,IMU0,-0.143701171875,-0.9580078125000001,0.5460644531250001,-0.700280112044818,7.212885154061625,2.2408963585434174
5.235,IMU0,0.17244140625,-0.9675878906250001,0.36404296875000003,-0.9803921568627452,7.352941176470589,2.2408963585434174
5.245,IMU0,-0.067060546875,-0.8622070312500001,0.55564453125,-0.700280112044818,7.42296918767507,2.2408963585434174
5.255,IMU0,0,-0.9196875000000001,0.5843847656250001,-0.5602240896358543,7.352941176470589,2.3109243697478994
5.265,IMU0,-0.028740234375000003,-0.8622070312500001,0.43110351562500004,-0.7703081232492998,7.492997198879552,2.3109243697478994
5.275,IMU0,-0.009580078125,-0.814306640625,0.7855664062500001,-0.4901960784313726,7.42296918767507,2.380952380952381
5.285,IMU0,0.09580078125000001,-0.8622070312500001,0.316142578125,-0.6302521008403361,7.492997198879552,2.450980392156863
5.295,IMU0,0.162861328125,-0.852626953125,0.296982421875,-0.5602240896358543,7.42296918767507,2.380952380952381
5.305,IMU0,0.0383203125,-0.795146484375,0.51732421875,-0.1400560224089636,7.352941176470589,2.450980392156863
5.315,IMU0,0.19160156250000002,-0.8047265625000001,0.47900390625000006,-0.350140056022409,7.563025210084034,2.450980392156863
5.325,IMU0,0.01916015625,-0.7855664062500001,0.41194335937500004,-0.4901960784313726,7.42296918767507,2.5210084033613445
5.335,IMU0,-0.10538085937500001,-0.7664062500000001,0.7280859375000001,-0.1400560224089636,7.42296918767507,2.5910364145658265
5.345,IMU0,-0.057480468750000006,-0.7472460937500001,0.47900390625000006,-0.1400560224089636,7.703081232492997,2.5910364145658265
5.355,IMU0,0.38320312500000003,-0.718505859375,0.43110351562500004,-0.1400560224089636,7.42296918767507,2.380952380952381
5.365,IMU0,0.335302734375,-0.70892578125,0.354462890625,0,7.633053221288516,2.380952380952381
5.375,IMU0,-0.0383203125,-0.59396484375,0.6418652343750001,0.350140056022409,7.633053221288516,2.5210084033613445
5.385,IMU0,-0.12454101562500001,-0.680185546875,0.51732421875,0.0700280112044818,7.563025210084034,2.450980392156863
5.395,IMU0,0.23950195312500003,-0.6227050781250001,0.21076171875000002,0.0700280112044818,7.42296918767507,2.170868347338936
5.405,IMU0,0.23950195312500003,-0.6227050781250001,0.21076171875000002,0.0700280112044818,7.42296918767507,2.170868347338936
5.415,IMU0,0.296982421875,-0.536484375,0.47900390625000006,0.2801120448179272,7.352941176470589,2.2408963585434174
5.425,IMU0,0.076640625,-0.5652246093750001,0.45984375000000005,0.350140056022409,7.42296918767507,2.3109243697478994
5.435,IMU0,0.067060546875,-0.6418652343750001,0.335302734375,0.0700280112044818,7.352941176470589,2.170868347338936
5.445,IMU0,0.10538085937500001,-0.5460644531250001,0.354462890625,0.42016806722689076,7.282913165266106,2.170868347338936
5.455,IMU0,0.067060546875,-0.536484375,0.7472460937500001,0.4901960784313726,7.142857142857143,2.3109243697478994
5.465,IMU0,-0.067060546875,-0.45984375000000005,0.49816406250000006,0.42016806722689076,7.352941176470589,2.2408963585434174
5.475,IMU0,-0.086220703125,-0.47900390625000006,0.23950195312500003,0.42016806722689076,7.282913165266106,2.170868347338936
5.485,IMU0,0.24908203125000003,-0.49816406250000006,0.45026367187500005,0.4901960784313726,7.282913165266106,2.100840336134454
5.495,IMU0,0.3448828125,-0.48858398437500006,0.3448828125,0.700280112044818,7.42296918767507,2.100840336134454
5.505,IMU0,0.10538085937500001,-0.39278320312500004,0.6514453125,0.7703081232492998,7.002801120448179,1.9607843137254903
5.515,IMU0,0.11496093750000001,-0.42152343750000004,0.51732421875,0.6302521008403361,7.212885154061625,1.9607843137254903
5.525,IMU0,-0.0383203125,-0.38320312500000003,0.5077441406250001,0.8403361344537815,7.212885154061625,1.8907563025210086
5.535,IMU0,0.09580078125000001,-0.41194335937500004,0.258662109375,0.700280112044818,7.072829131652662,1.9607843137254903
5.545,IMU0,0.19160156250000002,-0.41194335937500004,0.23950195312500003,0.700280112044818,7.142857142857143,1.8207282913165266
5.555,IMU0,0,-0.3448828125,0.55564453125,0.8403361344537815,7.142857142857143,1.8907563025210086
5.565,IMU0,0.2682421875,-0.42152343750000004,0.5748046875,0.9103641456582633,7.002801120448179,1.7507002801120448
5.575,IMU0,0.028740234375000003,-0.41194335937500004,0.296982421875,0.7703081232492998,7.072829131652662,1.680672268907563
5.585,IMU0,0.22992187500000003,-0.2682421875,0.680185546875,1.1904761904761905,6.792717086834735,1.680672268907563
5.595,IMU0,0.20118164062500002,-0.3448828125,0.44068359375000005,0.9803921568627452,6.932773109243698,1.6106442577030813
5.605,IMU0,0.354462890625,-0.46942382812500005,0.2682421875,0.7703081232492998,6.792717086834735,1.6106442577030813
5.615,IMU0,-0.11496093750000001,-0.22992187500000003,0.46942382812500005,1.400560224089636,6.792717086834735,1.7507002801120448
5.625,IMU0,-0.09580078125000001,-0.2682421875,0.3065625,1.1904761904761905,6.722689075630252,1.7507002801120448
5.635,IMU0,0.09580078125000001,-0.36404296875000003,0.22992187500000003,1.050420168067227,6.582633053221289,1.5406162464985995
5.645,IMU0,0.21076171875000002,-0.258662109375,0.48858398437500006,1.5406162464985995,6.512605042016807,1.5406162464985995
5.655,IMU0,0.354462890625,-0.258662109375,0.21076171875000002,1.1204481792717087,6.442577030812325,1.3305322128851542
5.665,IMU0,0.32572265625,-0.32572265625,0.5843847656250001,1.2605042016806722,6.442577030812325,1.400560224089636
5.675,IMU0,0.086220703125,-0.19160156250000002,0.871787109375,1.7507002801120448,6.372549019607844,1.4705882352941178
5.685,IMU0,0.28740234375,-0.22034179687500002,0.3065625,1.2605042016806722,6.372549019607844,1.2605042016806722
5.695,IMU0,0.15328125,-0.296982421875,0.17244140625,1.400560224089636,6.23249299719888,1.400560224089636
5.705,IMU0,-0.057480468750000006,-0.23950195312500003,0.40236328125000004,1.680672268907563,6.23249299719888,1.3305322128851542
5.715,IMU0,0.335302734375,-0.316142578125,0.55564453125,1.400560224089636,5.8123249299719895,1.1904761904761905
5.725,IMU0,0.47900390625000006,-0.18202148437500001,0.17244140625,1.6106442577030813,6.23249299719888,1.1904761904761905
5.735,IMU0,0.17244140625,-0.28740234375,0.277822265625,1.6106442577030813,5.742296918767507,1.1204481792717087
5.745,IMU0,0.10538085937500001,-0.20118164062500002,0.699345703125,1.680672268907563,5.882352941176471,1.1904761904761905
5.755,IMU0,0.5460644531250001,-0.15328125,0.277822265625,1.6106442577030813,5.6722689075630255,0.9803921568627452
5.765,IMU0,0.40236328125000004,-0.17244140625,0.36404296875000003,1.4705882352941178,5.46218487394958,0.9803921568627452
5.775,IMU0,0.076640625,-0.22034179687500002,0.5269042968750001,1.680672268907563,5.5322128851540615,1.050420168067227
5.785,IMU0,0.316142578125,-0.28740234375,0.67060546875,1.8207282913165266,5.182072829131653,0.8403361344537815
5.795,IMU0,0.057480468750000006,-0.13412109375,0.5269042968750001,1.9607843137254903,5.322128851540617,0.8403361344537815
5.805,IMU0,0.41194335937500004,-0.18202148437500001,0.10538085937500001,1.6106442577030813,5.042016806722689,0.4901960784313726
5.815,IMU0,0.59396484375,-0.258662109375,-0.009580078125,1.680672268907563,5.042016806722689,0.42016806722689076
5.825,IMU0,0.086220703125,-0.12454101562500001,0.536484375,2.2408963585434174,5.042016806722689,0.5602240896358543
5.835,IMU0,0.39278320312500004,-0.17244140625,0.15328125,1.8907563025210086,4.971988795518207,0.2801120448179272
5.845,IMU0,0.143701171875,-0.20118164062500002,0.18202148437500001,1.9607843137254903,4.69187675070028,0.350140056022409
5.855,IMU0,0.39278320312500004,-0.17244140625,0.5077441406250001,2.5910364145658265,4.481792717086835,0.42016806722689076
5.865,IMU0,0.39278320312500004,-0.17244140625,0.5077441406250001,2.5910364145658265,4.481792717086835,0.42016806722689076
5.875,IMU0,0.13412109375,-0.162861328125,0.24908203125000003,2.2408963585434174,4.551820728291316,0.2801120448179272
5.885,IMU0,0.23950195312500003,-0.09580078125000001,0.51732421875,2.380952380952381,4.131652661064426,0.2801120448179272
5.895,IMU0,-0.2682421875,-0.10538085937500001,0.296982421875,2.380952380952381,4.201680672268908,0.21008403361344538
5.905,IMU0,0.42152343750000004,-0.01916015625,0.047900390625000004,2.380952380952381,4.201680672268908,-0.0700280112044818
5.915,IMU0,0.5077441406250001,-0.143701171875,0.21076171875000002,2.5910364145658265,3.8515406162464987,-0.1400560224089636
5.925,IMU0,0.076640625,-0.143701171875,0.18202148437500001,2.73109243697479,3.991596638655462,-0.0700280112044818
5.935,IMU0,0.40236328125000004,-0.076640625,0.277822265625,2.5210084033613445,3.8515406162464987,-0.2801120448179272
5.945,IMU0,0.162861328125,-0.10538085937500001,0.028740234375000003,2.450980392156863,3.641456582633053,-0.0700280112044818
5.955,IMU0,0.09580078125000001,-0.13412109375,0.277822265625,2.5910364145658265,3.641456582633053,0.0700280112044818
5.965,IMU0,0.047900390625000004,-0.143701171875,0.258662109375,2.5910364145658265,3.641456582633053,0
5.975,IMU0,0.22034179687500002,-0.057480468750000006,0.38320312500000003,2.6610644257703084,3.5714285714285716,-0.0700280112044818
5.985,IMU0,0.37362304687500003,-0.086220703125,0.3065625,2.73109243697479,3.711484593837535,-0.1400560224089636
5.995,IMU0,0.01916015625,-0.11496093750000001,0.17244140625,2.73109243697479,3.5014005602240896,0
6.005,IMU0,0.28740234375,0.009580078125,0.51732421875,2.801120448179272,3.431372549019608,-0.1400560224089636
6.015,IMU0,0.19160156250000002,-0.086220703125,0.0383203125,2.5210084033613445,3.641456582633053,-0.1400560224089636
6.025,IMU0,0.20118164062500002,-0.086220703125,0.086220703125,2.6610644257703084,3.431372549019608,-0.21008403361344538
6.035,IMU0,0.43110351562500004,0,0.59396484375,2.9411764705882355,3.361344537815126,-0.2801120448179272
6.045,IMU0,0.028740234375000003,-0.028740234375000003,0.45984375000000005,2.6610644257703084,3.5714285714285716,-0.2801120448179272
6.055,IMU0,0.24908203125000003,0.0383203125,0.22034179687500002,2.5210084033613445,3.5714285714285716,-0.350140056022409
6.065,IMU0,0.335302734375,-0.028740234375000003,0.44068359375000005,2.5910364145658265,3.2212885154061626,-0.5602240896358543
6.075,IMU0,0.057480468750000006,0,0.2682421875,2.380952380952381,3.2913165266106446,-0.350140056022409
6.085,IMU0,0.335302734375,0.057480468750000006,0.2682421875,2.5910364145658265,3.2212885154061626,-0.5602240896358543
6.095,IMU0,0.22034179687500002,-0.009580078125,0.3065625,2.450980392156863,3.081232492997199,-0.4901960784313726
6.105,IMU0,0.277822265625,0.028740234375000003,0.49816406250000006,2.450980392156863,3.151260504201681,-0.4901960784313726
6.115,IMU0,0.22034179687500002,0.047900390625000004,0.316142578125,2.5910364145658265,3.081232492997199,-0.6302521008403361
6.125,IMU0,0.59396484375,0.0383203125,0.51732421875,2.380952380952381,2.8711484593837535,-0.7703081232492998
6.135,IMU0,0.24908203125000003,0.057480468750000006,0.277822265625,2.380952380952381,2.8711484593837535,-0.700280112044818
6.145,IMU0,0.057480468750000006,0.09580078125000001,0.37362304687500003,2.380952380952381,2.73109243697479,-0.6302521008403361
6.155,IMU0,0.3065625,0.047900390625000004,0.17244140625,2.3109243697478994,2.801120448179272,-0.8403361344537815
6.165,IMU0,0.316142578125,0.143701171875,0.40236328125000004,2.450980392156863,2.450980392156863,-0.9103641456582633
6.175,IMU0,0.44068359375000005,0.067060546875,0.3065625,2.450980392156863,2.380952380952381,-1.050420168067227
6.185,IMU0,0.22992187500000003,0.258662109375,0.335302734375,2.3109243697478994,2.100840336134454,-1.1904761904761905
6.195,IMU0,0.28740234375,0.38320312500000003,0.43110351562500004,2.450980392156863,1.8907563025210086,-1.2605042016806722
6.205,IMU0,0.28740234375,0.613125,0.258662109375,2.380952380952381,1.7507002801120448,-1.3305322128851542
6.215,IMU0,0.18202148437500001,0.5077441406250001,0.24908203125000003,2.380952380952381,1.6106442577030813,-1.4705882352941178
6.225,IMU0,0.20118164062500002,0.49816406250000006,0.3065625,2.380952380952381,1.6106442577030813,-1.4705882352941178
6.235,IMU0,0.258662109375,0.5077441406250001,0.21076171875000002,2.380952380952381,1.5406162464985995,-1.4705882352941178
6.245,IMU0,0.28740234375,0.51732421875,0.258662109375,2.380952380952381,1.400560224089636,-1.5406162464985995
6.255,IMU0,0.2682421875,0.45984375000000005,0.316142578125,2.3109243697478994,1.3305322128851542,-1.7507002801120448
6.265,IMU0,0.277822265625,0.47900390625000006,0.2682421875,2.380952380952381,1.2605042016806722,-1.7507002801120448
6.275,IMU0,0.18202148437500001,0.38320312500000003,0.28740234375,2.3109243697478994,0.9803921568627452,-1.8207282913165266
6.285,IMU0,0.22034179687500002,0.45026367187500005,0.22034179687500002,2.3109243697478994,0.7703081232492998,-1.9607843137254903
6.295,IMU0,0.17244140625,0.45984375000000005,0.19160156250000002,2.3109243697478994,0.700280112044818,-1.9607843137254903
6.305,IMU0,0.22034179687500002,1.6477734375000002,0.2682421875,2.100840336134454,0.4901960784313726,-2.030812324929972
6.315,IMU0,0.67060546875,1.6477734375000002,4.73255859375,2.100840336134454,0.4901960784313726,-2.030812324929972
6.325,IMU0,0.67060546875,-5.786367187500001,4.73255859375,2.5210084033613445,2.380952380952381,-1.1204481792717087
6.335,IMU0,0.6514453125,-0.49816406250000006,1.657353515625,5.112044817927171,-2.801120448179272,-3.431372549019608
6.345,IMU0,0.39278320312500004,0.613125,0.076640625,3.5014005602240896,0.5602240896358543,-2.6610644257703084
6.355,IMU0,0.067060546875,0.6514453125,0.13412109375,2.030812324929972,-0.2801120448179272,-2.5910364145658265
6.365,IMU0,0.009580078125,0.32572265625,0.41194335937500004,2.030812324929972,-0.700280112044818,-2.6610644257703084
6.375,IMU0,0.335302734375,0.55564453125,0.47900390625000006,2.170868347338936,-0.0700280112044818,-2.801120448179272
6.385,IMU0,0.18202148437500001,0.5652246093750001,0,1.9607843137254903,-0.2801120448179272,-2.73109243697479
6.395,IMU0,0.15328125,0.5077441406250001,0.258662109375,2.030812324929972,-0.700280112044818,-2.8711484593837535
6.405,IMU0,0.13412109375,0.49816406250000006,0.316142578125,1.9607843137254903,-0.4901960784313726,-2.8711484593837535
6.415,IMU0,0.13412109375,0.5077441406250001,0.15328125,1.8907563025210086,-0.700280112044818,-2.8711484593837535
6.425,IMU0,0.22992187500000003,0.49816406250000006,0.17244140625,1.8907563025210086,-0.7703081232492998,-2.9411764705882355
6.435,IMU0,0.162861328125,0.48858398437500006,0.22034179687500002,1.9607843137254903,-0.6302521008403361,-2.9411764705882355
6.445,IMU0,0.17244140625,0.51732421875,0.15328125,1.9607843137254903,-0.700280112044818,-3.011204481792717
6.455,IMU0,0.162861328125,0.51732421875,0.22034179687500002,1.8907563025210086,-0.700280112044818,-3.081232492997199
6.465,IMU0,0.086220703125,0.49816406250000006,0.13412109375,1.8207282913165266,-0.9103641456582633,-3.151260504201681
6.475,IMU0,0.09580078125000001,0.51732421875,0.17244140625,1.8207282913165266,-1.050420168067227,-3.151260504201681
6.485,IMU0,0.20118164062500002,0.5077441406250001,0.18202148437500001,1.680672268907563,-1.1904761904761905,-3.2212885154061626
6.495,IMU0,0.22034179687500002,0.47900390625000006,0.162861328125,1.6106442577030813,-1.3305322128851542,-3.2913165266106446
6.505,IMU0,0.10538085937500001,0.536484375,0.143701171875,1.680672268907563,-1.400560224089636,-3.361344537815126
6.515,IMU0,1.082548828125,-15.76880859375,0.047900390625000004,3.9215686274509807,-1.6106442577030813,-3.2212885154061626
6.525,IMU0,-0.59396484375,-3.190166015625,2.01181640625,3.5714285714285716,-3.991596638655462,-3.2913165266106446
6.535,IMU0,0.296982421875,-1.274150390625,0.12454101562500001,1.3305322128851542,-1.680672268907563,-3.5714285714285716
6.545,IMU0,0,0.51732421875,0.42152343750000004,2.170868347338936,-1.1904761904761905,-3.011204481792717
6.555,IMU0,-0.11496093750000001,0.43110351562500004,0.316142578125,2.030812324929972,-1.3305322128851542,-3.2913165266106446
6.565,IMU0,0.13412109375,-0.143701171875,0.028740234375000003,1.4705882352941178,-1.400560224089636,-3.711484593837535
6.575,IMU0,0.11496093750000001,0.22992187500000003,0.162861328125,1.6106442577030813,-1.680672268907563,-3.431372549019608
6.585,IMU0,0.13412109375,0.680185546875,0.23950195312500003,1.7507002801120448,-1.400560224089636,-3.431372549019608
6.595,IMU0,0.24908203125000003,0.613125,0.086220703125,1.4705882352941178,-1.6106442577030813,-3.641456582633053
6.605,IMU0,0.18202148437500001,0.5460644531250001,0.12454101562500001,1.5406162464985995,-1.6106442577030813,-3.5014005602240896
6.615,IMU0,0.076640625,0.36404296875000003,0.076640625,1.5406162464985995,-1.5406162464985995,-3.5014005602240896
6.625,IMU0,0.143701171875,0.20118164062500002,0.028740234375000003,1.4705882352941178,-1.8207282913165266,-3.641456582633053
6.635,IMU0,0.028740234375000003,0.13412109375,0.086220703125,1.400560224089636,-1.8207282913165266,-3.711484593837535
6.645,IMU0,0.01916015625,0.19160156250000002,0.10538085937500001,1.3305322128851542,-1.9607843137254903,-3.641456582633053
6.655,IMU0,0.047900390625000004,0.32572265625,0.10538085937500001,1.2605042016806722,-2.100840336134454,-3.711484593837535
6.665,IMU0,0.0383203125,0.44068359375000005,0.12454101562500001,1.1204481792717087,-2.170868347338936,-3.711484593837535
6.675,IMU0,0.0383203125,0.47900390625000006,0.12454101562500001,1.1204481792717087,-2.100840336134454,-3.781512605042017
6.685,IMU0,0.01916015625,0.43110351562500004,0.13412109375,0.9803921568627452,-2.170868347338936,-3.711484593837535
6.695,IMU0,0.009580078125,0.296982421875,0.047900390625000004,0.8403361344537815,-2.2408963585434174,-3.711484593837535
6.705,IMU0,0.0383203125,0.10538085937500001,0.057480468750000006,0.7703081232492998,-2.380952380952381,-3.711484593837535
6.715,IMU0,0.143701171875,0.277822265625,0.10538085937500001,0.700280112044818,-2.380952380952381,-3.711484593837535
6.725,IMU0,0.12454101562500001,0.51732421875,0.12454101562500001,0.6302521008403361,-2.5210084033613445,-3.781512605042017
6.735,IMU0,0.047900390625000004,0.48858398437500006,0.12454101562500001,0.5602240896358543,-2.5210084033613445,-3.8515406162464987
6.745,IMU0,0.047900390625000004,0.18202148437500001,0.0383203125,0.6302521008403361,-2.5210084033613445,-3.8515406162464987
6.755,IMU0,0.01916015625,0.23950195312500003,0.028740234375000003,0.4901960784313726,-2.5910364145658265,-3.781512605042017
6.765,IMU0,0.028740234375000003,0.6035449218750001,0.047900390625000004,0.4901960784313726,-2.5910364145658265,-3.781512605042017
6.775,IMU0,0.028740234375000003,0.6035449218750001,0.047900390625000004,0.4901960784313726,-2.5910364145658265,-3.781512605042017
6.785,IMU0,-0.047900390625000004,0.354462890625,0,0.42016806722689076,-2.6610644257703084,-3.781512605042017
6.795,IMU0,-0.076640625,0.21076171875000002,-0.067060546875,0.42016806722689076,-2.5910364145658265,-3.781512605042017
6.805,IMU0,0.067060546875,0.5843847656250001,0.047900390625000004,0.350140056022409,-2.8711484593837535,-3.8515406162464987
6.815,IMU0,0.067060546875,0.316142578125,0.0383203125,0.2801120448179272,-2.9411764705882355,-3.9215686274509807
6.825,IMU0,0.086220703125,0.3448828125,0.0383203125,0.1400560224089636,-2.8711484593837535,-3.8515406162464987
6.835,IMU0,0.028740234375000003,0.536484375,0.076640625,0.0700280112044818,-3.151260504201681,-3.8515406162464987
6.845,IMU0,0.0383203125,0.277822265625,0.028740234375000003,-0.1400560224089636,-3.011204481792717,-3.8515406162464987
6.855,IMU0,0.009580078125,0.5843847656250001,0.10538085937500001,-0.21008403361344538,-3.151260504201681,-3.8515406162464987
6.865,IMU0,0.0383203125,0.296982421875,0,-0.350140056022409,-3.151260504201681,-3.8515406162464987
6.875,IMU0,0.047900390625000004,0.5269042968750001,0.028740234375000003,-0.4901960784313726,-3.151260504201681,-3.8515406162464987
6.885,IMU0,0.057480468750000006,0.28740234375,0,-0.42016806722689076,-3.2212885154061626,-3.8515406162464987
6.895,IMU0,0.13412109375,0.51732421875,0.067060546875,-0.4901960784313726,-3.2212885154061626,-3.781512605042017
6.905,IMU0,0.009580078125,0.335302734375,0.047900390625000004,-0.6302521008403361,-3.2212885154061626,-3.8515406162464987
6.915,IMU0,0.01916015625,0.536484375,0.12454101562500001,-0.6302521008403361,-3.2913165266106446,-3.8515406162464987
6.925,IMU0,-0.01916015625,0.38320312500000003,0.028740234375000003,-0.6302521008403361,-3.2913165266106446,-3.8515406162464987
6.935,IMU0,0.067060546875,0.48858398437500006,0.067060546875,-0.700280112044818,-3.431372549019608,-3.8515406162464987
6.945,IMU0,0.047900390625000004,0.38320312500000003,-0.01916015625,-0.9803921568627452,-3.361344537815126,-3.8515406162464987
6.955,IMU0,0.15328125,0.41194335937500004,0.12454101562500001,-1.050420168067227,-3.711484593837535,-3.8515406162464987
6.965,IMU0,0.09580078125000001,0.45026367187500005,0.0383203125,-1.050420168067227,-3.641456582633053,-3.9215686274509807
6.975,IMU0,0.028740234375000003,0.38320312500000003,0.10538085937500001,-1.1204481792717087,-3.8515406162464987,-3.8515406162464987
6.985,IMU0,-0.028740234375000003,0.47900390625000006,0.09580078125000001,-1.1904761904761905,-3.781512605042017,-3.8515406162464987
6.995,IMU0,-0.028740234375000003,0.37362304687500003,0.0383203125,-1.2605042016806722,-3.781512605042017,-3.781512605042017
7.005,IMU0,0.047900390625000004,0.45984375000000005,0.0383203125,-1.400560224089636,-3.711484593837535,-3.8515406162464987
7.015,IMU0,0.067060546875,0.40236328125000004,-0.01916015625,-1.400560224089636,-3.8515406162464987,-3.8515406162464987
7.025,IMU0,0.047900390625000004,0.45026367187500005,0.047900390625000004,-1.5406162464985995,-4.131652661064426,-3.9215686274509807
7.035,IMU0,-0.067060546875,0.45984375000000005,0.01916015625,-1.6106442577030813,-4.271708683473389,-3.991596638655462
7.045,IMU0,-0.0383203125,0.38320312500000003,0.047900390625000004,-1.6106442577030813,-4.341736694677872,-3.991596638655462
7.055,IMU0,0.01916015625,0.44068359375000005,0.0383203125,-1.680672268907563,-4.341736694677872,-3.9215686274509807
7.065,IMU0,-0.01916015625,0.40236328125000004,0.047900390625000004,-1.7507002801120448,-4.481792717086835,-3.9215686274509807
7.075,IMU0,0.076640625,0.39278320312500004,0.09580078125000001,-1.8207282913165266,-4.551820728291316,-3.9215686274509807
7.085,IMU0,0,0.40236328125000004,-0.086220703125,-2.030812324929972,-4.621848739495799,-3.9215686274509807
7.095,IMU0,-0.076640625,0.39278320312500004,-0.009580078125,-2.030812324929972,-4.621848739495799,-3.9215686274509807
7.105,IMU0,-0.057480468750000006,0.39278320312500004,0.028740234375000003,-2.100840336134454,-4.481792717086835,-3.8515406162464987
7.115,IMU0,0,0.36404296875000003,0.0383203125,-2.100840336134454,-4.551820728291316,-3.9215686274509807
7.125,IMU0,0.0383203125,0.43110351562500004,0.047900390625000004,-2.030812324929972,-4.551820728291316,-3.9215686274509807
7.135,IMU0,-0.0383203125,0.40236328125000004,0.028740234375000003,-2.2408963585434174,-4.551820728291316,-3.991596638655462
7.145,IMU0,0,0.38320312500000003,0.009580078125,-2.380952380952381,-4.621848739495799,-3.991596638655462
7.155,IMU0,-0.01916015625,0.41194335937500004,0.076640625,-2.450980392156863,-4.69187675070028,-3.991596638655462
7.165,IMU0,-0.009580078125,0.41194335937500004,0.11496093750000001,-2.5210084033613445,-4.69187675070028,-3.9215686274509807
7.175,IMU0,-0.01916015625,0.43110351562500004,0.047900390625000004,-2.6610644257703084,-4.831932773109244,-3.9215686274509807
7.185,IMU0,0.009580078125,0.41194335937500004,0,-2.801120448179272,-4.831932773109244,-3.8515406162464987
7.195,IMU0,0.01916015625,0.36404296875000003,0.047900390625000004,-2.73109243697479,-4.761904761904762,-3.8515406162464987
7.205,IMU0,0.0383203125,0.40236328125000004,0.11496093750000001,-2.801120448179272,-4.551820728291316,-3.8515406162464987
7.215,IMU0,-0.028740234375000003,0.40236328125000004,0.10538085937500001,-2.801120448179272,-4.621848739495799,-3.8515406162464987
7.225,IMU0,-0.009580078125,0.40236328125000004,0.10538085937500001,-2.8711484593837535,-4.481792717086835,-3.781512605042017
7.235,IMU0,-0.009580078125,0.40236328125000004,0.10538085937500001,-2.8711484593837535,-4.481792717086835,-3.781512605042017
7.245,IMU0,1.4849121093750002,-15.711328125000001,0.5748046875,-3.151260504201681,-4.551820728291316,-3.781512605042017
7.255,IMU0,-1.55197265625,-5.795947265625,4.61759765625,-2.73109243697479,-5.322128851540617,-3.8515406162464987
7.265,IMU0,0.8430468750000001,-0.316142578125,1.6860937500000002,-0.700280112044818,-8.893557422969188,-4.831932773109244
7.275,IMU0,-0.13412109375,0.8813671875000001,0.7280859375000001,-2.73109243697479,-4.901960784313726,-4.131652661064426
7.285,IMU0,-0.2682421875,1.312470703125,0.277822265625,-3.081232492997199,-4.271708683473389,-4.201680672268908
7.295,IMU0,0.15328125,1.025068359375,0.354462890625,-2.380952380952381,-5.2521008403361344,-3.991596638655462
7.305,IMU0,0.12454101562500001,-0.41194335937500004,0.18202148437500001,-3.361344537815126,-4.831932773109244,-4.131652661064426
7.315,IMU0,-0.11496093750000001,-0.44068359375000005,0.15328125,-3.431372549019608,-4.551820728291316,-4.131652661064426
7.325,IMU0,0.17244140625,0.7664062500000001,0.09580078125000001,-3.5014005602240896,-4.69187675070028,-3.9215686274509807
7.335,IMU0,0.39278320312500004,1.5232324218750002,0.354462890625,-3.2913165266106446,-4.901960784313726,-3.991596638655462
7.345,IMU0,0.20118164062500002,0.49816406250000006,0,-3.5714285714285716,-5.042016806722689,-4.061624649859944
7.355,IMU0,-0.20118164062500002,-0.7280859375000001,-0.296982421875,-3.5714285714285716,-4.971988795518207,-3.991596638655462
7.365,IMU0,0.10538085937500001,0.7664062500000001,-0.0383203125,-3.641456582633053,-5.2521008403361344,-3.9215686274509807
7.375,IMU0,0.258662109375,1.37953125,0.19160156250000002,-3.711484593837535,-5.042016806722689,-3.9215686274509807
7.385,IMU0,0.028740234375000003,-0.42152343750000004,-0.067060546875,-3.2913165266106446,-5.112044817927171,-3.9215686274509807
7.395,IMU0,-0.162861328125,0.277822265625,0.047900390625000004,-3.431372549019608,-5.392156862745098,-3.9215686274509807
7.405,IMU0,-0.13412109375,1.3220507812500002,0.10538085937500001,-3.991596638655462,-5.882352941176471,-3.991596638655462
7.415,IMU0,0.17244140625,-0.41194335937500004,-0.086220703125,-3.9215686274509807,-5.6722689075630255,-4.061624649859944
7.425,IMU0,-0.01916015625,0.699345703125,-0.11496093750000001,-3.781512605042017,-5.742296918767507,-3.9215686274509807
7.435,IMU0,-0.009580078125,0.737666015625,0.0383203125,-3.991596638655462,-6.302521008403362,-3.991596638655462
7.445,IMU0,0.028740234375000003,-0.296982421875,-0.15328125,-3.991596638655462,-5.602240896358544,-4.061624649859944
7.455,IMU0,0.076640625,1.235830078125,0.086220703125,-4.131652661064426,-6.162464985994398,-3.991596638655462
7.465,IMU0,-0.047900390625000004,-0.258662109375,-0.057480468750000006,-4.201680672268908,-6.162464985994398,-3.991596638655462
7.475,IMU0,-0.028740234375000003,0.9388476562500001,0.0383203125,-4.341736694677872,-5.9523809523809526,-3.9215686274509807
7.485,IMU0,0.009580078125,0.11496093750000001,0,-4.411764705882353,-6.23249299719888,-3.9215686274509807
7.495,IMU0,0.028740234375000003,0.59396484375,0.076640625,-4.411764705882353,-5.742296918767507,-3.8515406162464987
7.505,IMU0,0.057480468750000006,0.40236328125000004,0.10538085937500001,-4.551820728291316,-6.302521008403362,-3.991596638655462
7.515,IMU0,0.13412109375,0.41194335937500004,-0.0383203125,-4.481792717086835,-5.9523809523809526,-3.8515406162464987
7.525,IMU0,0.10538085937500001,0.51732421875,0.09580078125000001,-4.621848739495799,-6.512605042016807,-3.8515406162464987
7.535,IMU0,-0.028740234375000003,0.36404296875000003,-0.057480468750000006,-4.831932773109244,-5.6722689075630255,-3.781512605042017
7.545,IMU0,0.067060546875,0.49816406250000006,0.17244140625,-4.901960784313726,-6.162464985994398,-3.9215686274509807
7.555,IMU0,0.009580078125,0.40236328125000004,0.028740234375000003,-4.971988795518207,-5.5322128851540615,-3.8515406162464987
7.565,IMU0,0.01916015625,0.43110351562500004,0.18202148437500001,-5.042016806722689,-6.162464985994398,-3.9215686274509807
7.575,IMU0,0.057480468750000006,0.5077441406250001,-0.028740234375000003,-5.112044817927171,-5.6722689075630255,-3.8515406162464987
7.585,IMU0,0.0383203125,0.277822265625,0.12454101562500001,-5.2521008403361344,-6.372549019607844,-3.9215686274509807
7.595,IMU0,-0.009580078125,0.5748046875,0.028740234375000003,-5.182072829131653,-5.742296918767507,-3.8515406162464987
7.605,IMU0,0,0.20118164062500002,0.09580078125000001,-5.322128851540617,-6.372549019607844,-3.991596638655462
7.615,IMU0,0.047900390625000004,0.680185546875,0.067060546875,-5.2521008403361344,-6.022408963585434,-3.9215686274509807
7.625,IMU0,-0.12454101562500001,0.162861328125,0.12454101562500001,-5.112044817927171,-6.512605042016807,-3.991596638655462
7.635,IMU0,-0.067060546875,0.67060546875,0.17244140625,-5.392156862745098,-6.23249299719888,-3.9215686274509807
7.645,IMU0,-0.09580078125000001,0.22992187500000003,0,-5.46218487394958,-6.512605042016807,-4.061624649859944
7.655,IMU0,-0.076640625,0.5269042968750001,0.22992187500000003,-5.46218487394958,-6.512605042016807,-3.991596638655462
7.665,IMU0,-0.01916015625,0.37362304687500003,0.01916015625,-5.5322128851540615,-6.652661064425771,-4.061624649859944
7.675,IMU0,0.067060546875,0.36404296875000003,0.18202148437500001,-5.602240896358544,-6.932773109243698,-4.061624649859944
7.685,IMU0,0.0383203125,0.51732421875,0.067060546875,-5.602240896358544,-6.932773109243698,-4.061624649859944
7.695,IMU0,0.0383203125,0.51732421875,0.067060546875,-5.602240896358544,-6.652661064425771,-3.991596638655462
7.705,IMU0,-0.01916015625,0.277822265625,0.22034179687500002,-5.6722689075630255,-7.212885154061625,-3.9215686274509807
7.715,IMU0,-0.047900390625000004,0.5269042968750001,0.13412109375,-5.602240896358544,-6.932773109243698,-3.711484593837535
7.725,IMU0,-0.076640625,0.3065625,0.15328125,-5.602240896358544,-7.142857142857143,-3.781512605042017
7.735,IMU0,0.057480468750000006,0.46942382812500005,0.143701171875,-5.6722689075630255,-7.002801120448179,-3.711484593837535
7.745,IMU0,0,0.38320312500000003,0.13412109375,-5.882352941176471,-7.142857142857143,-3.781512605042017
7.755,IMU0,0,0.36404296875000003,0.20118164062500002,-5.8123249299719895,-7.212885154061625,-3.781512605042017
7.765,IMU0,-0.01916015625,0.44068359375000005,0.057480468750000006,-5.882352941176471,-7.002801120448179,-3.781512605042017
7.775,IMU0,0.076640625,0.316142578125,0.11496093750000001,-5.882352941176471,-7.282913165266106,-3.711484593837535
7.785,IMU0,-0.01916015625,0.45026367187500005,0.162861328125,-5.882352941176471,-7.142857142857143,-3.711484593837535
7.795,IMU0,-0.028740234375000003,0.36404296875000003,0.143701171875,-5.882352941176471,-7.352941176470589,-3.781512605042017
7.805,IMU0,0.047900390625000004,0.38320312500000003,0.162861328125,-5.9523809523809526,-7.352941176470589,-3.711484593837535
7.815,IMU0,0.01916015625,0.41194335937500004,0.15328125,-5.9523809523809526,-7.352941176470589,-3.711484593837535
7.825,IMU0,-0.0383203125,0.36404296875000003,0.15328125,-6.0924369747899165,-7.42296918767507,-3.711484593837535
7.835,IMU0,0,0.40236328125000004,0.15328125,-6.0924369747899165,-7.42296918767507,-3.711484593837535
7.845,IMU0,-0.047900390625000004,0.37362304687500003,0.11496093750000001,-6.022408963585434,-7.352941176470589,-3.711484593837535
7.855,IMU0,0.0383203125,0.37362304687500003,0.143701171875,-6.022408963585434,-7.42296918767507,-3.711484593837535
7.865,IMU0,0.009580078125,0.42152343750000004,0.22034179687500002,-6.022408963585434,-7.492997198879552,-3.641456582633053
7.875,IMU0,0.0383203125,0.37362304687500003,0.19160156250000002,-6.0924369747899165,-7.492997198879552,-3.641456582633053
7.885,IMU0,0.057480468750000006,0.39278320312500004,0.23950195312500003,-6.162464985994398,-7.563025210084034,-3.641456582633053
7.895,IMU0,0,0.37362304687500003,0.21076171875000002,-6.23249299719888,-7.563025210084034,-3.711484593837535
7.905,IMU0,-0.01916015625,0.38320312500000003,0.162861328125,-6.162464985994398,-7.563025210084034,-3.711484593837535
7.915,IMU0,0.057480468750000006,0.38320312500000003,0.22034179687500002,-6.302521008403362,-7.633053221288516,-3.641456582633053
7.925,IMU0,0.01916015625,0.37362304687500003,0.24908203125000003,-6.23249299719888,-7.633053221288516,-3.641456582633053
7.935,IMU0,0.01916015625,0.38320312500000003,0.23950195312500003,-6.302521008403362,-7.703081232492997,-3.5714285714285716
7.945,IMU0,0.067060546875,0.38320312500000003,0.19160156250000002,-6.302521008403362,-7.773109243697479,-3.5714285714285716
7.955,IMU0,0.0383203125,0.36404296875000003,0.17244140625,-6.302521008403362,-7.773109243697479,-3.5714285714285716
7.965,IMU0,0.047900390625000004,0.43110351562500004,0.19160156250000002,-6.302521008403362,-7.773109243697479,-3.5714285714285716
7.975,IMU0,0.047900390625000004,0.3448828125,0.21076171875000002,-6.302521008403362,-7.843137254901961,-3.5714285714285716
7.985,IMU0,0.057480468750000006,0.37362304687500003,0.22992187500000003,-6.23249299719888,-7.913165266106443,-3.5714285714285716
7.995,IMU0,-0.01916015625,0.354462890625,0.22992187500000003,-6.302521008403362,-7.913165266106443,-3.5714285714285716
8.005,IMU0,0.028740234375000003,0.354462890625,0.22034179687500002,-6.302521008403362,-7.983193277310924,-3.5014005602240896
8.015,IMU0,0.047900390625000004,0.39278320312500004,0.22992187500000003,-6.372549019607844,-8.053221288515406,-3.5014005602240896
8.025,IMU0,0.076640625,0.40236328125000004,0.24908203125000003,-6.512605042016807,-8.053221288515406,-3.5714285714285716
8.035,IMU0,0.028740234375000003,0.37362304687500003,0.23950195312500003,-6.372549019607844,-8.053221288515406,-3.5714285714285716
8.045,IMU0,0.086220703125,-0.067060546875,0.23950195312500003,-6.372549019607844,-8.19327731092437,-3.5014005602240896
8.055,IMU0,-0.36404296875000003,-4.991220703125,0.9675878906250001,-6.792717086834735,-7.703081232492997,-3.5014005602240896
8.065,IMU0,0.6035449218750001,-0.775986328125,0.55564453125,-6.0924369747899165,-8.683473389355743,-3.5014005602240896
8.075,IMU0,-0.316142578125,0.5748046875,2.1938378906250002,-5.182072829131653,-8.753501400560225,-3.781512605042017
8.085,IMU0,-0.20118164062500002,0.852626953125,0.871787109375,-6.162464985994398,-7.212885154061625,-3.8515406162464987
8.095,IMU0,0.32572265625,0.43110351562500004,0.296982421875,-6.512605042016807,-8.543417366946779,-3.8515406162464987
8.105,IMU0,0.15328125,0.23950195312500003,0.833466796875,-5.9523809523809526,-7.983193277310924,-3.711484593837535
8.115,IMU0,-0.076640625,-0.13412109375,0.258662109375,-6.162464985994398,-8.543417366946779,-3.8515406162464987
8.125,IMU0,-0.258662109375,-0.296982421875,0.15328125,-6.442577030812325,-8.61344537815126,-3.9215686274509807
8.135,IMU0,0.09580078125000001,0.15328125,0.48858398437500006,-5.9523809523809526,-8.683473389355743,-3.781512605042017
8.145,IMU0,0.09580078125000001,0.15328125,0.48858398437500006,-5.9523809523809526,-8.683473389355743,-3.781512605042017
8.155,IMU0,-0.0383203125,0.775986328125,0.32572265625,-6.022408963585434,-8.333333333333334,-3.781512605042017
8.165,IMU0,0.13412109375,0.9963281250000001,0.536484375,-6.23249299719888,-8.473389355742297,-3.9215686274509807
8.175,IMU0,0.01916015625,0.12454101562500001,0.44068359375000005,-6.162464985994398,-8.543417366946779,-3.8515406162464987
8.185,IMU0,-0.10538085937500001,-0.38320312500000003,0.18202148437500001,-5.9523809523809526,-8.333333333333334,-3.8515406162464987
8.195,IMU0,0.11496093750000001,0.47900390625000006,0.36404296875000003,-6.0924369747899165,-8.61344537815126,-3.8515406162464987
8.205,IMU0,0.047900390625000004,1.0346484375,0.2682421875,-6.162464985994398,-8.543417366946779,-3.9215686274509807
8.215,IMU0,0.15328125,0.076640625,0.42152343750000004,-6.0924369747899165,-8.403361344537815,-3.8515406162464987
8.225,IMU0,0.0383203125,-0.3065625,0.12454101562500001,-6.0924369747899165,-8.403361344537815,-3.8515406162464987
8.235,IMU0,0.09580078125000001,0.948427734375,0.316142578125,-6.0924369747899165,-8.753501400560225,-3.8515406162464987
8.245,IMU0,0.067060546875,0.51732421875,0.3065625,-6.0924369747899165,-8.753501400560225,-3.8515406162464987
8.255,IMU0,-0.01916015625,-0.335302734375,0.24908203125000003,-6.0924369747899165,-8.473389355742297,-3.8515406162464987
8.265,IMU0,0.01916015625,0.833466796875,0.354462890625,-6.0924369747899165,-8.683473389355743,-3.8515406162464987
8.275,IMU0,0,0.40236328125000004,0.38320312500000003,-6.0924369747899165,-8.823529411764707,-3.9215686274509807
8.285,IMU0,0.057480468750000006,-0.143701171875,0.23950195312500003,-6.0924369747899165,-8.543417366946779,-3.8515406162464987
8.295,IMU0,0.09580078125000001,0.910107421875,0.49816406250000006,-6.162464985994398,-8.753501400560225,-3.8515406162464987
8.305,IMU0,-0.01916015625,-0.01916015625,0.32572265625,-6.022408963585434,-8.683473389355743,-3.9215686274509807
8.315,IMU0,0.067060546875,0.41194335937500004,0.36404296875000003,-6.022408963585434,-8.543417366946779,-3.8515406162464987
8.325,IMU0,0.01916015625,0.45026367187500005,0.42152343750000004,-6.162464985994398,-8.823529411764707,-3.9215686274509807
8.335,IMU0,0,-0.028740234375000003,0.13412109375,-6.0924369747899165,-8.473389355742297,-3.8515406162464987
8.345,IMU0,0.067060546875,0.737666015625,0.43110351562500004,-6.022408963585434,-8.823529411764707,-3.8515406162464987
8.355,IMU0,-0.028740234375000003,-0.076640625,0.20118164062500002,-5.9523809523809526,-8.473389355742297,-3.8515406162464987
8.365,IMU0,0.067060546875,0.7280859375000001,0.44068359375000005,-5.9523809523809526,-8.61344537815126,-3.8515406162464987
8.375,IMU0,0.009580078125,0.01916015625,0.38320312500000003,-5.9523809523809526,-8.753501400560225,-3.9215686274509807
8.385,IMU0,0.086220703125,0.536484375,0.49816406250000006,-5.882352941176471,-8.543417366946779,-3.9215686274509807
8.395,IMU0,0.047900390625000004,0.15328125,0.40236328125000004,-5.8123249299719895,-8.823529411764707,-3.991596638655462
8.405,IMU0,0.076640625,0.44068359375000005,0.354462890625,-5.8123249299719895,-8.473389355742297,-3.9215686274509807
8.415,IMU0,-0.028740234375000003,0.22992187500000003,0.3448828125,-5.8123249299719895,-8.96358543417367,-3.991596638655462
8.425,IMU0,0.0383203125,0.39278320312500004,0.22034179687500002,-5.6722689075630255,-8.403361344537815,-3.9215686274509807
8.435,IMU0,0.01916015625,0.24908203125000003,0.316142578125,-5.742296918767507,-8.823529411764707,-3.991596638655462
8.445,IMU0,0.009580078125,0.36404296875000003,0.22992187500000003,-5.6722689075630255,-8.263305322128852,-3.9215686274509807
8.455,IMU0,0.0383203125,0.277822265625,0.43110351562500004,-5.6722689075630255,-8.823529411764707,-3.991596638655462
8.465,IMU0,0.028740234375000003,0.37362304687500003,0.37362304687500003,-5.5322128851540615,-8.473389355742297,-3.991596638655462
8.475,IMU0,0.01916015625,0.277822265625,0.46942382812500005,-5.5322128851540615,-8.96358543417367,-3.991596638655462
8.485,IMU0,-0.0383203125,0.39278320312500004,0.37362304687500003,-5.46218487394958,-8.543417366946779,-3.9215686274509807
8.495,IMU0,0,0.24908203125000003,0.38320312500000003,-5.46218487394958,-8.96358543417367,-4.131652661064426
8.505,IMU0,-0.057480468750000006,0.42152343750000004,0.277822265625,-5.5322128851540615,-8.543417366946779,-3.991596638655462
8.515,IMU0,0.009580078125,0.22034179687500002,0.316142578125,-5.5322128851540615,-8.893557422969188,-3.991596638655462
8.525,IMU0,0.0383203125,0.40236328125000004,0.28740234375,-5.46218487394958,-8.473389355742297,-3.9215686274509807
8.535,IMU0,0,0.18202148437500001,0.40236328125000004,-5.5322128851540615,-8.753501400560225,-3.991596638655462
8.545,IMU0,-0.0383203125,0.42152343750000004,0.37362304687500003,-5.46218487394958,-8.403361344537815,-3.991596638655462
8.555,IMU0,-0.028740234375000003,0.21076171875000002,0.40236328125000004,-5.392156862745098,-8.683473389355743,-4.061624649859944
8.565,IMU0,-0.028740234375000003,0.42152343750000004,0.39278320312500004,-5.392156862745098,-8.263305322128852,-3.991596638655462
8.575,IMU0,0,0.20118164062500002,0.354462890625,-5.392156862745098,-8.543417366946779,-4.061624649859944
8.585,IMU0,0.0383203125,0.39278320312500004,0.3448828125,-5.2521008403361344,-8.333333333333334,-3.991596638655462
8.595,IMU0,-0.01916015625,0.21076171875000002,0.3448828125,-5.2521008403361344,-8.473389355742297,-4.061624649859944
8.605,IMU0,-0.01916015625,0.21076171875000002,0.3448828125,-5.2521008403361344,-8.473389355742297,-4.061624649859944
8.615,IMU0,0,0.37362304687500003,0.38320312500000003,-5.2521008403361344,-8.333333333333334,-3.991596638655462
8.625,IMU0,-0.028740234375000003,0.23950195312500003,0.37362304687500003,-5.182072829131653,-8.403361344537815,-4.061624649859944
8.635,IMU0,0.01916015625,0.316142578125,0.41194335937500004,-5.112044817927171,-8.263305322128852,-3.991596638655462
8.645,IMU0,0.009580078125,0.2682421875,0.3065625,-5.112044817927171,-8.333333333333334,-3.991596638655462
8.655,IMU0,0,0.3065625,0.37362304687500003,-5.042016806722689,-8.263305322128852,-4.061624649859944
8.665,IMU0,-0.028740234375000003,0.296982421875,0.335302734375,-5.042016806722689,-8.333333333333334,-3.991596638655462
8.675,IMU0,-0.057480468750000006,0.296982421875,0.38320312500000003,-4.971988795518207,-8.333333333333334,-3.991596638655462
8.685,IMU0,-0.086220703125,0.3448828125,0.335302734375,-4.901960784313726,-8.263305322128852,-3.9215686274509807
8.695,IMU0,0.067060546875,0.258662109375,0.38320312500000003,-4.971988795518207,-8.333333333333334,-3.991596638655462
8.705,IMU0,0.047900390625000004,0.32572265625,0.354462890625,-4.971988795518207,-8.19327731092437,-3.991596638655462
8.715,IMU0,0.009580078125,0.258662109375,0.3448828125,-4.971988795518207,-8.333333333333334,-3.991596638655462
8.725,IMU0,-0.067060546875,0.296982421875,0.3448828125,-4.901960784313726,-8.19327731092437,-3.991596638655462
8.735,IMU0,-0.057480468750000006,0.258662109375,0.37362304687500003,-4.761904761904762,-8.19327731092437,-3.991596638655462
8.745,IMU0,-0.067060546875,0.32572265625,0.37362304687500003,-4.761904761904762,-8.123249299719888,-3.9215686274509807
8.755,IMU0,0.01916015625,0.24908203125000003,0.3448828125,-4.761904761904762,-8.19327731092437,-3.991596638655462
8.765,IMU0,0.028740234375000003,0.316142578125,0.39278320312500004,-4.69187675070028,-8.123249299719888,-3.9215686274509807
8.775,IMU0,-0.01916015625,0.296982421875,0.316142578125,-4.761904761904762,-8.19327731092437,-3.9215686274509807
8.785,IMU0,-0.028740234375000003,0.28740234375,0.354462890625,-4.69187675070028,-8.19327731092437,-3.991596638655462
8.795,IMU0,-0.09580078125000001,0.32572265625,0.37362304687500003,-4.621848739495799,-8.123249299719888,-3.9215686274509807
8.805,IMU0,-0.057480468750000006,0.28740234375,0.38320312500000003,-4.621848739495799,-8.123249299719888,-3.8515406162464987
8.815,IMU0,0.009580078125,0.32572265625,0.3065625,-4.481792717086835,-8.053221288515406,-3.8515406162464987
8.825,IMU0,0.01916015625,0.277822265625,0.32572265625,-4.481792717086835,-8.053221288515406,-3.9215686274509807
8.835,IMU0,-0.047900390625000004,0.2682421875,0.28740234375,-4.551820728291316,-7.913165266106443,-3.9215686274509807
8.845,IMU0,-0.01916015625,0.28740234375,0.316142578125,-4.481792717086835,-7.913165266106443,-3.991596638655462
8.855,IMU0,-0.13412109375,0.296982421875,0.37362304687500003,-4.411764705882353,-7.773109243697479,-3.991596638655462
8.865,IMU0,-0.057480468750000006,0.258662109375,0.38320312500000003,-4.411764705882353,-7.703081232492997,-3.8515406162464987
8.875,IMU0,-0.047900390625000004,0.277822265625,0.37362304687500003,-4.411764705882353,-7.633053221288516,-3.781512605042017
8.885,IMU0,0.028740234375000003,0.2682421875,0.37362304687500003,-4.341736694677872,-7.563025210084034,-3.781512605042017
8.895,IMU0,0.047900390625000004,0.28740234375,0.3448828125,-4.411764705882353,-7.492997198879552,-3.8515406162464987
8.905,IMU0,-0.047900390625000004,0.277822265625,0.36404296875000003,-4.271708683473389,-7.492997198879552,-3.8515406162464987
8.915,IMU0,-0.086220703125,0.2682421875,0.38320312500000003,-4.271708683473389,-7.42296918767507,-3.8515406162464987
8.925,IMU0,-0.0383203125,0.296982421875,0.354462890625,-4.341736694677872,-7.352941176470589,-3.781512605042017
8.935,IMU0,0,0.258662109375,0.38320312500000003,-4.201680672268908,-7.282913165266106,-3.711484593837535
8.945,IMU0,0,0.277822265625,0.37362304687500003,-4.201680672268908,-7.212885154061625,-3.711484593837535
8.955,IMU0,0,0.258662109375,0.38320312500000003,-4.131652661064426,-7.072829131652662,-3.781512605042017
8.965,IMU0,-0.0383203125,0.296982421875,0.354462890625,-4.131652661064426,-7.142857142857143,-3.711484593837535
8.975,IMU0,-0.10538085937500001,0.277822265625,0.40236328125000004,-4.061624649859944,-7.142857142857143,-3.711484593837535
8.985,IMU0,-0.047900390625000004,0.28740234375,0.38320312500000003,-4.061624649859944,-7.142857142857143,-3.641456582633053
8.995,IMU0,-0.009580078125,0.258662109375,0.36404296875000003,-3.991596638655462,-7.002801120448179,-3.5714285714285716
9.005,IMU0,0.009580078125,0.23950195312500003,0.354462890625,-3.991596638655462,-7.002801120448179,-3.641456582633053
9.015,IMU0,0.028740234375000003,0.28740234375,0.37362304687500003,-3.781512605042017,-6.862745098039216,-3.641456582633053
9.025,IMU0,-0.0383203125,0.2682421875,0.36404296875000003,-3.9215686274509807,-6.792717086834735,-3.711484593837535
9.035,IMU0,-0.067060546875,0.277822265625,0.3448828125,-3.9215686274509807,-6.792717086834735,-3.641456582633053
9.045,IMU0,-0.028740234375000003,0.296982421875,0.335302734375,-3.8515406162464987,-6.722689075630252,-3.641456582633053
9.055,IMU0,0.009580078125,0.277822265625,0.3448828125,-3.781512605042017,-6.652661064425771,-3.5714285714285716
9.065,IMU0,0.009580078125,0.277822265625,0.3448828125,-3.781512605042017,-6.652661064425771,-3.5714285714285716
9.075,IMU0,0.086220703125,0.2682421875,0.316142578125,-3.711484593837535,-6.652661064425771,-3.5714285714285716
9.085,IMU0,0.028740234375000003,0.24908203125000003,0.32572265625,-3.641456582633053,-6.582633053221289,-3.5714285714285716
9.095,IMU0,-0.076640625,0.258662109375,0.3448828125,-3.641456582633053,-6.512605042016807,-3.5714285714285716
9.105,IMU0,-0.057480468750000006,0.28740234375,0.335302734375,-3.5714285714285716,-6.512605042016807,-3.5714285714285716
9.115,IMU0,-0.0383203125,0.22992187500000003,0.354462890625,-3.5014005602240896,-6.442577030812325,-3.5014005602240896
9.125,IMU0,-0.009580078125,0.258662109375,0.3448828125,-3.5014005602240896,-6.442577030812325,-3.5714285714285716
9.135,IMU0,0,0.277822265625,0.32572265625,-3.431372549019608,-6.512605042016807,-3.5714285714285716
9.145,IMU0,0.009580078125,0.2682421875,0.296982421875,-3.431372549019608,-6.512605042016807,-3.5714285714285716
9.155,IMU0,-0.076640625,0.23950195312500003,0.296982421875,-3.5014005602240896,-6.442577030812325,-3.641456582633053
9.165,IMU0,-0.09580078125000001,0.2682421875,0.335302734375,-3.431372549019608,-6.442577030812325,-3.5014005602240896
9.175,IMU0,-0.028740234375000003,0.24908203125000003,0.354462890625,-3.361344537815126,-6.372549019607844,-3.5714285714285716
9.185,IMU0,0.057480468750000006,0.24908203125000003,0.335302734375,-3.361344537815126,-6.442577030812325,-3.5014005602240896
9.195,IMU0,0,0.24908203125000003,0.335302734375,-3.2913165266106446,-6.372549019607844,-3.5014005602240896
9.205,IMU0,0,0.24908203125000003,0.3448828125,-3.2913165266106446,-6.372549019607844,-3.5714285714285716
9.215,IMU0,-0.076640625,0.28740234375,0.3448828125,-3.2913165266106446,-6.372549019607844,-3.5714285714285716
9.225,IMU0,-0.13412109375,0.258662109375,0.335302734375,-3.2212885154061626,-6.302521008403362,-3.5714285714285716
9.235,IMU0,-0.067060546875,0.296982421875,0.335302734375,-3.2913165266106446,-6.302521008403362,-3.431372549019608
9.245,IMU0,0.086220703125,0.24908203125000003,0.335302734375,-3.2913165266106446,-6.23249299719888,-3.431372549019608
9.255,IMU0,-0.01916015625,0.24908203125000003,0.335302734375,-3.2212885154061626,-6.0924369747899165,-3.5014005602240896
9.265,IMU0,-0.0383203125,0.23950195312500003,0.3448828125,-3.151260504201681,-6.0924369747899165,-3.5014005602240896
9.275,IMU0,-0.13412109375,0.22034179687500002,0.335302734375,-3.151260504201681,-6.0924369747899165,-3.5714285714285716
9.285,IMU0,-0.10538085937500001,0.22034179687500002,0.36404296875000003,-3.081232492997199,-6.022408963585434,-3.5014005602240896
9.295,IMU0,-0.01916015625,0.24908203125000003,0.32572265625,-3.151260504201681,-5.9523809523809526,-3.431372549019608
